"usubjid","aeseq","studyid","domain","siteid","subjid","aeterm","aedecod","aebodsys","aesev","aeser","aesern","aerel","dsreasae","ontrtfl","trtemfl","aefn","bodfn","decodfn","saefn","sdecodfn","sbodfn","aedermfn","aestdt","aestdtf","aestdy","anlstdy","aeendt","aeendy","trtp","trtpcd","trtpn","age","agegrp","agegrpn","race","racen","sex","safety","itt","efficacy","complt24","aedict","aescan","aescong","aesdisab","aesdth","aeshosp","aeslife","hlgterm","hlterm","llterm","lstdosdt","trtdur","trtstdt"
"01-701-1015",1,"CDISCPILOT01","ADAE","701","1015","VERBATIM_0995","APPLICATION SITE ERYTHEMA","GENERAL DISORDERS AND ADMINISTRATION SITE CONDITIONS","MILD","N",0,"PROBABLE",,"Y","Y",1,1,1,,,,1,1/3/2014 0:00:00 AM,,2,2,,,"Placebo","Pbo",0,63,"<65",1,"HISPANIC (MEXICAN - AMERICAN, MEXICO, CENTRAL AND SOUTH AMERICA)",5,"F","Y","Y","Y","Y","MedDRA version 8.0 (partially masked by request of MSSO)","N","N","N","N","N","N","HLGT_0152","HLT_0617","APPLICATION SITE REDNESS",7/2/2014 0:00:00 AM,182,1/2/2014 0:00:00 AM
"01-701-1015",2,"CDISCPILOT01","ADAE","701","1015","VERBATIM_1219","APPLICATION SITE PRURITUS","GENERAL DISORDERS AND ADMINISTRATION SITE CONDITIONS","MILD","N",0,"PROBABLE",,"Y","Y",,,1,,,,1,1/3/2014 0:00:00 AM,,2,2,,,"Placebo","Pbo",0,63,"<65",1,"HISPANIC (MEXICAN - AMERICAN, MEXICO, CENTRAL AND SOUTH AMERICA)",5,"F","Y","Y","Y","Y","MedDRA version 8.0 (partially masked by request of MSSO)","N","N","N","N","N","N","HLGT_0338","HLT_0317","APPLICATION SITE ITCHING",7/2/2014 0:00:00 AM,182,1/2/2014 0:00:00 AM
"01-701-1015",3,"CDISCPILOT01","ADAE","701","1015","VERBATIM_1126","DIARRHOEA","GASTROINTESTINAL DISORDERS","MILD","N",0,"REMOTE",,"Y","Y",,1,1,,,,,1/9/2014 0:00:00 AM,,8,8,1/11/2014 0:00:00 AM,10,"Placebo","Pbo",0,63,"<65",1,"HISPANIC (MEXICAN - AMERICAN, MEXICO, CENTRAL AND SOUTH AMERICA)",5,"F","Y","Y","Y","Y","MedDRA version 8.0 (partially masked by request of MSSO)","N","N","N","N","N","N","HLGT_0588","HLT_0148","DIARRHEA",7/2/2014 0:00:00 AM,182,1/2/2014 0:00:00 AM
"01-701-1023",1,"CDISCPILOT01","ADAE","701","1023","VERBATIM_0300","ERYTHEMA","SKIN AND SUBCUTANEOUS TISSUE DISORDERS","MILD","N",0,"POSSIBLE","Y","Y","Y",1,1,1,,,,1,8/7/2012 0:00:00 AM,,3,3,8/30/2012 0:00:00 AM,26,"Placebo","Pbo",0,64,"<65",1,"HISPANIC (MEXICAN - AMERICAN, MEXICO, CENTRAL AND SOUTH AMERICA)",5,"M","Y","Y","Y","N","MedDRA version 8.0 (partially masked by request of MSSO)","N","N","N","N","N","N","HLGT_0192","HLT_0284","ERYTHEMA",9/1/2012 0:00:00 AM,28,8/5/2012 0:00:00 AM
"01-701-1023",2,"CDISCPILOT01","ADAE","701","1023","VERBATIM_1549","ERYTHEMA","SKIN AND SUBCUTANEOUS TISSUE DISORDERS","MODERATE","N",0,"PROBABLE","Y","Y","Y",,,,,,,1,8/7/2012 0:00:00 AM,,3,3,,,"Placebo","Pbo",0,64,"<65",1,"HISPANIC (MEXICAN - AMERICAN, MEXICO, CENTRAL AND SOUTH AMERICA)",5,"M","Y","Y","Y","N","MedDRA version 8.0 (partially masked by request of MSSO)","N","N","N","N","N","N","HLGT_0192","HLT_0284","LOCALIZED ERYTHEMA",9/1/2012 0:00:00 AM,28,8/5/2012 0:00:00 AM
"01-701-1023",3,"CDISCPILOT01","ADAE","701","1023","VERBATIM_1650","ATRIOVENTRICULAR BLOCK SECOND DEGREE","CARDIAC DISORDERS","MILD","N",0,"POSSIBLE","Y","Y","Y",,1,1,,,,,8/26/2012 0:00:00 AM,,22,22,,,"Placebo","Pbo",0,64,"<65",1,"HISPANIC (MEXICAN - AMERICAN, MEXICO, CENTRAL AND SOUTH AMERICA)",5,"M","Y","Y","Y","N","MedDRA version 8.0 (partially masked by request of MSSO)","N","N","N","N","N","N","HLGT_0086","HLT_0415","AV BLOCK SECOND DEGREE",9/1/2012 0:00:00 AM,28,8/5/2012 0:00:00 AM
"01-701-1023",4,"CDISCPILOT01","ADAE","701","1023","VERBATIM_0300","ERYTHEMA","SKIN AND SUBCUTANEOUS TISSUE DISORDERS","MILD","N",0,"POSSIBLE","Y","Y","Y",,,,,,,1,8/7/2012 0:00:00 AM,,3,3,8/30/2012 0:00:00 AM,26,"Placebo","Pbo",0,64,"<65",1,"HISPANIC (MEXICAN - AMERICAN, MEXICO, CENTRAL AND SOUTH AMERICA)",5,"M","Y","Y","Y","N","MedDRA version 8.0 (partially masked by request of MSSO)","N","N","N","N","N","N","HLGT_0192","HLT_0284","ERYTHEMA",9/1/2012 0:00:00 AM,28,8/5/2012 0:00:00 AM
"01-701-1028",1,"CDISCPILOT01","ADAE","701","1028","VERBATIM_1157","APPLICATION SITE ERYTHEMA","GENERAL DISORDERS AND ADMINISTRATION SITE CONDITIONS","MILD","N",0,"POSSIBLE",,"Y","Y",1,1,1,,,,1,7/21/2013 0:00:00 AM,,3,3,,,"Xanomeline High Dose","Xan_Hi",2,71,"65-80",2,"CAUCASIAN",1,"M","Y","Y","Y","Y","MedDRA version 8.0 (partially masked by request of MSSO)","N","N","N","N","N","N","HLGT_0152","HLT_0617","APPLICATION SITE ERYTHEMA",1/14/2014 0:00:00 AM,180,7/19/2013 0:00:00 AM
"01-701-1028",2,"CDISCPILOT01","ADAE","701","1028","VERBATIM_0578","APPLICATION SITE PRURITUS","GENERAL DISORDERS AND ADMINISTRATION SITE CONDITIONS","MILD","N",0,"PROBABLE",,"Y","Y",,,1,,,,1,8/8/2013 0:00:00 AM,,21,21,,,"Xanomeline High Dose","Xan_Hi",2,71,"65-80",2,"CAUCASIAN",1,"M","Y","Y","Y","Y","MedDRA version 8.0 (partially masked by request of MSSO)","N","N","N","N","N","N","HLGT_0338","HLT_0317","APPLICATION SITE ITCHING",1/14/2014 0:00:00 AM,180,7/19/2013 0:00:00 AM
"01-701-1034",1,"CDISCPILOT01","ADAE","701","1034","VERBATIM_1219","APPLICATION SITE PRURITUS","GENERAL DISORDERS AND ADMINISTRATION SITE CONDITIONS","MILD","N",0,"PROBABLE",,"Y","Y",1,1,1,,,,1,8/27/2014 0:00:00 AM,,58,58,,,"Xanomeline High Dose","Xan_Hi",2,77,"65-80",2,"CAUCASIAN",1,"F","Y","Y","Y","Y","MedDRA version 8.0 (partially masked by request of MSSO)","N","N","N","N","N","N","HLGT_0338","HLT_0317","APPLICATION SITE ITCHING",12/30/2014 0:00:00 AM,183,7/1/2014 0:00:00 AM
"01-701-1034",2,"CDISCPILOT01","ADAE","701","1034","VERBATIM_0555","FATIGUE","GENERAL DISORDERS AND ADMINISTRATION SITE CONDITIONS","MILD","N",0,"POSSIBLE",,"Y","Y",,,1,,,,,11/2/2014 0:00:00 AM,,125,125,,,"Xanomeline High Dose","Xan_Hi",2,77,"65-80",2,"CAUCASIAN",1,"F","Y","Y","Y","Y","MedDRA version 8.0 (partially masked by request of MSSO)","N","N","N","N","N","N","HLGT_0181","HLT_0043","FATIGUE",12/30/2014 0:00:00 AM,183,7/1/2014 0:00:00 AM
"01-701-1047",1,"CDISCPILOT01","ADAE","701","1047","VERBATIM_0130","HIATUS HERNIA","GASTROINTESTINAL DISORDERS","MODERATE","N",0,"NONE","Y","Y","Y",1,1,1,,,,,2/12/2013 0:00:00 AM,,1,1,2/12/2013 0:00:00 AM,1,"Placebo","Pbo",0,85,">80",3,"CAUCASIAN",1,"F","Y","Y","Y","N","MedDRA version 8.0 (partially masked by request of MSSO)","N","N","N","N","N","N","HLGT_0109","HLT_0159","HERNIA HIATAL",3/9/2013 0:00:00 AM,26,2/12/2013 0:00:00 AM
"01-701-1047",2,"CDISCPILOT01","ADAE","701","1047","VERBATIM_0130","HIATUS HERNIA","GASTROINTESTINAL DISORDERS","MODERATE","N",0,"NONE","Y","Y","Y",,,,,,,,2/12/2013 0:00:00 AM,,1,1,2/12/2013 0:00:00 AM,1,"Placebo","Pbo",0,85,">80",3,"CAUCASIAN",1,"F","Y","Y","Y","N","MedDRA version 8.0 (partially masked by request of MSSO)","N","N","N","N","N","N","HLGT_0109","HLT_0159","HERNIA HIATAL",3/9/2013 0:00:00 AM,26,2/12/2013 0:00:00 AM
"01-701-1047",3,"CDISCPILOT01","ADAE","701","1047","VERBATIM_0579","UPPER RESPIRATORY TRACT INFECTION","INFECTIONS AND INFESTATIONS","MILD","N",0,"NONE","Y","Y","Y",,1,1,,,,,3/6/2013 0:00:00 AM,,23,23,,,"Placebo","Pbo",0,85,">80",3,"CAUCASIAN",1,"F","Y","Y","Y","N","MedDRA version 8.0 (partially masked by request of MSSO)","N","N","N","N","N","N","HLGT_0489","HLT_0520","UPPER RESPIRATORY INFECTION",3/9/2013 0:00:00 AM,26,2/12/2013 0:00:00 AM
"01-701-1047",4,"CDISCPILOT01","ADAE","701","1047","VERBATIM_0197","BUNDLE BRANCH BLOCK LEFT","CARDIAC DISORDERS","MILD","N",0,"NONE","Y","N","Y",,1,1,,,,,3/10/2013 0:00:00 AM,,27,27,,,"Placebo","Pbo",0,85,">80",3,"CAUCASIAN",1,"F","Y","Y","Y","N","MedDRA version 8.0 (partially masked by request of MSSO)","N","N","N","N","N","N","HLGT_0721","HLT_0281","LEFT BUNDLE BRANCH BLOCK",3/9/2013 0:00:00 AM,26,2/12/2013 0:00:00 AM
"01-701-1097",1,"CDISCPILOT01","ADAE","701","1097","VERBATIM_0300","ERYTHEMA","SKIN AND SUBCUTANEOUS TISSUE DISORDERS","MILD","N",0,"POSSIBLE",,"Y","Y",1,1,1,,,,1,1/3/2014 0:00:00 AM,,3,3,,,"Xanomeline Low Dose","Xan_Lo",1,68,"65-80",2,"CAUCASIAN",1,"M","Y","Y","Y","Y","MedDRA version 8.0 (partially masked by request of MSSO)","N","N","N","N","N","N","HLGT_0192","HLT_0284","ERYTHEMA",7/9/2014 0:00:00 AM,190,1/1/2014 0:00:00 AM
"01-701-1097",2,"CDISCPILOT01","ADAE","701","1097","VERBATIM_0990","PRURITUS GENERALISED","SKIN AND SUBCUTANEOUS TISSUE DISORDERS","MODERATE","N",0,"POSSIBLE",,"Y","Y",,,1,,,,1,2/20/2014 0:00:00 AM,,51,51,2/20/2014 0:00:00 AM,51,"Xanomeline Low Dose","Xan_Lo",1,68,"65-80",2,"CAUCASIAN",1,"M","Y","Y","Y","Y","MedDRA version 8.0 (partially masked by request of MSSO)","N","N","N","N","N","N","HLGT_0689","HLT_0123","GENERALIZED PRURITUS",7/9/2014 0:00:00 AM,190,1/1/2014 0:00:00 AM
"01-701-1097",3,"CDISCPILOT01","ADAE","701","1097","VERBATIM_1522","APPLICATION SITE VESICLES","GENERAL DISORDERS AND ADMINISTRATION SITE CONDITIONS","MILD","N",0,"PROBABLE",,"Y","Y",,1,1,,,,1,2/20/2014 0:00:00 AM,,51,51,2/22/2014 0:00:00 AM,53,"Xanomeline Low Dose","Xan_Lo",1,68,"65-80",2,"CAUCASIAN",1,"M","Y","Y","Y","Y","MedDRA version 8.0 (partially masked by request of MSSO)","N","N","N","N","N","N","HLGT_0576","HLT_0180","APPLICATION SITE BLISTER",7/9/2014 0:00:00 AM,190,1/1/2014 0:00:00 AM
"01-701-1097",4,"CDISCPILOT01","ADAE","701","1097","VERBATIM_1219","APPLICATION SITE PRURITUS","GENERAL DISORDERS AND ADMINISTRATION SITE CONDITIONS","MILD","N",0,"POSSIBLE",,"Y","Y",,,1,,,,1,2/21/2014 0:00:00 AM,,52,52,,,"Xanomeline Low Dose","Xan_Lo",1,68,"65-80",2,"CAUCASIAN",1,"M","Y","Y","Y","Y","MedDRA version 8.0 (partially masked by request of MSSO)","N","N","N","N","N","N","HLGT_0338","HLT_0317","APPLICATION SITE ITCHING",7/9/2014 0:00:00 AM,190,1/1/2014 0:00:00 AM
"01-701-1097",5,"CDISCPILOT01","ADAE","701","1097","VERBATIM_0758","PRURITUS GENERALISED","SKIN AND SUBCUTANEOUS TISSUE DISORDERS","MODERATE","N",0,"POSSIBLE",,"Y","Y",,,,,,,1,3/21/2014 0:00:00 AM,,80,80,3/21/2014 0:00:00 AM,80,"Xanomeline Low Dose","Xan_Lo",1,68,"65-80",2,"CAUCASIAN",1,"M","Y","Y","Y","Y","MedDRA version 8.0 (partially masked by request of MSSO)","N","N","N","N","N","N","HLGT_0689","HLT_0123","GENERALIZED PRURITUS",7/9/2014 0:00:00 AM,190,1/1/2014 0:00:00 AM
"01-701-1097",6,"CDISCPILOT01","ADAE","701","1097","VERBATIM_0990","PRURITUS GENERALISED","SKIN AND SUBCUTANEOUS TISSUE DISORDERS","MODERATE","N",0,"POSSIBLE",,"Y","Y",,,,,,,1,3/31/2014 0:00:00 AM,,90,90,3/31/2014 0:00:00 AM,90,"Xanomeline Low Dose","Xan_Lo",1,68,"65-80",2,"CAUCASIAN",1,"M","Y","Y","Y","Y","MedDRA version 8.0 (partially masked by request of MSSO)","N","N","N","N","N","N","HLGT_0689","HLT_0123","GENERALIZED PRURITUS",7/9/2014 0:00:00 AM,190,1/1/2014 0:00:00 AM
"01-701-1097",7,"CDISCPILOT01","ADAE","701","1097","VERBATIM_0758","PRURITUS GENERALISED","SKIN AND SUBCUTANEOUS TISSUE DISORDERS","MODERATE","N",0,"POSSIBLE",,"Y","Y",,,,,,,1,4/19/2014 0:00:00 AM,,109,109,4/20/2014 0:00:00 AM,110,"Xanomeline Low Dose","Xan_Lo",1,68,"65-80",2,"CAUCASIAN",1,"M","Y","Y","Y","Y","MedDRA version 8.0 (partially masked by request of MSSO)","N","N","N","N","N","N","HLGT_0689","HLT_0123","GENERALIZED PRURITUS",7/9/2014 0:00:00 AM,190,1/1/2014 0:00:00 AM
"01-701-1097",8,"CDISCPILOT01","ADAE","701","1097","VERBATIM_1230","PHARYNGOLARYNGEAL PAIN","RESPIRATORY, THORACIC AND MEDIASTINAL DISORDERS","MILD","N",0,"NONE",,"Y","Y",,1,1,,,,,4/19/2014 0:00:00 AM,,109,109,4/22/2014 0:00:00 AM,112,"Xanomeline Low Dose","Xan_Lo",1,68,"65-80",2,"CAUCASIAN",1,"M","Y","Y","Y","Y","MedDRA version 8.0 (partially masked by request of MSSO)","N","N","N","N","N","N","HLGT_0402","HLT_0130","SORE THROAT",7/9/2014 0:00:00 AM,190,1/1/2014 0:00:00 AM
"01-701-1097",9,"CDISCPILOT01","ADAE","701","1097","VERBATIM_1612","NASAL CONGESTION","RESPIRATORY, THORACIC AND MEDIASTINAL DISORDERS","MILD","N",0,"NONE",,"Y","Y",,,1,,,,,4/19/2014 0:00:00 AM,,109,109,4/22/2014 0:00:00 AM,112,"Xanomeline Low Dose","Xan_Lo",1,68,"65-80",2,"CAUCASIAN",1,"M","Y","Y","Y","Y","MedDRA version 8.0 (partially masked by request of MSSO)","N","N","N","N","N","N","HLGT_0549","HLT_0118","NASAL CONGESTION",7/9/2014 0:00:00 AM,190,1/1/2014 0:00:00 AM
"01-701-1097",10,"CDISCPILOT01","ADAE","701","1097","VERBATIM_1219","APPLICATION SITE PRURITUS","GENERAL DISORDERS AND ADMINISTRATION SITE CONDITIONS","MODERATE","N",0,"POSSIBLE",,"Y","Y",,,,,,,1,2/21/2014 0:00:00 AM,,52,52,,,"Xanomeline Low Dose","Xan_Lo",1,68,"65-80",2,"CAUCASIAN",1,"M","Y","Y","Y","Y","MedDRA version 8.0 (partially masked by request of MSSO)","N","N","N","N","N","N","HLGT_0338","HLT_0317","APPLICATION SITE ITCHING",7/9/2014 0:00:00 AM,190,1/1/2014 0:00:00 AM
"01-701-1111",1,"CDISCPILOT01","ADAE","701","1111","VERBATIM_0300","ERYTHEMA","SKIN AND SUBCUTANEOUS TISSUE DISORDERS","MILD","N",0,"NONE","Y","N","N",,,,,,,1,9/2/2012 0:00:00 AM,,-5,-4,9/7/2012 0:00:00 AM,1,"Xanomeline Low Dose","Xan_Lo",1,81,">80",3,"CAUCASIAN",1,"F","Y","Y","Y","N","MedDRA version 8.0 (partially masked by request of MSSO)","N","N","N","N","N","N","HLGT_0192","HLT_0284","ERYTHEMA",9/16/2012 0:00:00 AM,10,9/7/2012 0:00:00 AM
"01-701-1111",2,"CDISCPILOT01","ADAE","701","1111","VERBATIM_0216","PRURITUS","SKIN AND SUBCUTANEOUS TISSUE DISORDERS","MILD","N",0,"NONE","Y","N","N",,,,,,,1,9/2/2012 0:00:00 AM,,-5,-4,9/7/2012 0:00:00 AM,1,"Xanomeline Low Dose","Xan_Lo",1,81,">80",3,"CAUCASIAN",1,"F","Y","Y","Y","N","MedDRA version 8.0 (partially masked by request of MSSO)","N","N","N","N","N","N","HLGT_0695","HLT_0778","ITCHING",9/16/2012 0:00:00 AM,10,9/7/2012 0:00:00 AM
"01-701-1111",3,"CDISCPILOT01","ADAE","701","1111","VERBATIM_1224","LOCALISED INFECTION","INFECTIONS AND INFESTATIONS","MODERATE","N",0,"NONE","Y","N","N",,,,,,,,7/8/2012 0:00:00 AM,,-61,-60,,,"Xanomeline Low Dose","Xan_Lo",1,81,">80",3,"CAUCASIAN",1,"F","Y","Y","Y","N","MedDRA version 8.0 (partially masked by request of MSSO)","N","N","N","N","N","N","HLGT_0557","HLT_0435","LOCALIZED INFECTION",9/16/2012 0:00:00 AM,10,9/7/2012 0:00:00 AM
"01-701-1111",4,"CDISCPILOT01","ADAE","701","1111","VERBATIM_0300","ERYTHEMA","SKIN AND SUBCUTANEOUS TISSUE DISORDERS","MILD","N",0,"NONE","Y","N","N",,,,,,,1,9/2/2012 0:00:00 AM,,-5,-4,9/7/2012 0:00:00 AM,1,"Xanomeline Low Dose","Xan_Lo",1,81,">80",3,"CAUCASIAN",1,"F","Y","Y","Y","N","MedDRA version 8.0 (partially masked by request of MSSO)","N","N","N","N","N","N","HLGT_0192","HLT_0284","ERYTHEMA",9/16/2012 0:00:00 AM,10,9/7/2012 0:00:00 AM
"01-701-1111",5,"CDISCPILOT01","ADAE","701","1111","VERBATIM_0216","PRURITUS","SKIN AND SUBCUTANEOUS TISSUE DISORDERS","MILD","N",0,"NONE","Y","N","N",,,,,,,1,9/2/2012 0:00:00 AM,,-5,-4,9/7/2012 0:00:00 AM,1,"Xanomeline Low Dose","Xan_Lo",1,81,">80",3,"CAUCASIAN",1,"F","Y","Y","Y","N","MedDRA version 8.0 (partially masked by request of MSSO)","N","N","N","N","N","N","HLGT_0695","HLT_0778","ITCHING",9/16/2012 0:00:00 AM,10,9/7/2012 0:00:00 AM
"01-701-1111",6,"CDISCPILOT01","ADAE","701","1111","VERBATIM_1179","MICTURITION URGENCY","RENAL AND URINARY DISORDERS","MILD","N",0,"NONE","Y","Y","Y",1,1,1,,,,,9/7/2012 0:00:00 AM,,1,1,,,"Xanomeline Low Dose","Xan_Lo",1,81,">80",3,"CAUCASIAN",1,"F","Y","Y","Y","N","MedDRA version 8.0 (partially masked by request of MSSO)","N","N","N","N","N","N","HLGT_0483","HLT_0294","URINARY URGENCY",9/16/2012 0:00:00 AM,10,9/7/2012 0:00:00 AM
"01-701-1111",7,"CDISCPILOT01","ADAE","701","1111","VERBATIM_1614","ARTHRALGIA","MUSCULOSKELETAL AND CONNECTIVE TISSUE DISORDERS","MODERATE","N",0,"NONE","Y","Y","Y",,1,1,,,,,9/13/2012 0:00:00 AM,,7,7,,,"Xanomeline Low Dose","Xan_Lo",1,81,">80",3,"CAUCASIAN",1,"F","Y","Y","Y","N","MedDRA version 8.0 (partially masked by request of MSSO)","N","N","N","N","N","N","HLGT_0610","HLT_0375","GENERALIZED JOINT PAIN",9/16/2012 0:00:00 AM,10,9/7/2012 0:00:00 AM
"01-701-1111",8,"CDISCPILOT01","ADAE","701","1111","VERBATIM_0034","CELLULITIS","INFECTIONS AND INFESTATIONS","MODERATE","N",0,"NONE","Y","Y","Y",,1,1,,,,,9/13/2012 0:00:00 AM,,7,7,,,"Xanomeline Low Dose","Xan_Lo",1,81,">80",3,"CAUCASIAN",1,"F","Y","Y","Y","N","MedDRA version 8.0 (partially masked by request of MSSO)","N","N","N","N","N","N","HLGT_0066","HLT_0613","CELLULITIS OF LEG",9/16/2012 0:00:00 AM,10,9/7/2012 0:00:00 AM
"01-701-1115",1,"CDISCPILOT01","ADAE","701","1115","VERBATIM_0716","APPLICATION SITE ERYTHEMA","GENERAL DISORDERS AND ADMINISTRATION SITE CONDITIONS","MILD","N",0,"PROBABLE","Y","Y","Y",1,1,1,,,,1,12/2/2012 0:00:00 AM,,3,3,,,"Xanomeline Low Dose","Xan_Lo",1,84,">80",3,"CAUCASIAN",1,"M","Y","Y","Y","N","MedDRA version 8.0 (partially masked by request of MSSO)","N","N","N","N","N","N","HLGT_0152","HLT_0617","APPLICATION SITE REDNESS",1/23/2013 0:00:00 AM,55,11/30/2012 0:00:00 AM
"01-701-1115",2,"CDISCPILOT01","ADAE","701","1115","VERBATIM_1219","APPLICATION SITE PRURITUS","GENERAL DISORDERS AND ADMINISTRATION SITE CONDITIONS","MILD","N",0,"PROBABLE","Y","Y","Y",,,1,,,,1,12/2/2012 0:00:00 AM,,3,3,,,"Xanomeline Low Dose","Xan_Lo",1,84,">80",3,"CAUCASIAN",1,"M","Y","Y","Y","N","MedDRA version 8.0 (partially masked by request of MSSO)","N","N","N","N","N","N","HLGT_0338","HLT_0317","APPLICATION SITE ITCHING",1/23/2013 0:00:00 AM,55,11/30/2012 0:00:00 AM
"01-701-1115",3,"CDISCPILOT01","ADAE","701","1115","VERBATIM_0212","APPLICATION SITE IRRITATION","GENERAL DISORDERS AND ADMINISTRATION SITE CONDITIONS","MILD","N",0,"POSSIBLE","Y","Y","Y",,,1,,,,1,12/26/2012 0:00:00 AM,,27,27,12/26/2012 0:00:00 AM,27,"Xanomeline Low Dose","Xan_Lo",1,84,">80",3,"CAUCASIAN",1,"M","Y","Y","Y","N","MedDRA version 8.0 (partially masked by request of MSSO)","N","N","N","N","N","N","HLGT_0346","HLT_0061","APPLICATION SITE BURNING",1/23/2013 0:00:00 AM,55,11/30/2012 0:00:00 AM
"01-701-1115",4,"CDISCPILOT01","ADAE","701","1115","VERBATIM_0212","APPLICATION SITE IRRITATION","GENERAL DISORDERS AND ADMINISTRATION SITE CONDITIONS","MILD","N",0,"POSSIBLE","Y","Y","Y",,,,,,,1,12/26/2012 0:00:00 AM,,27,27,12/26/2012 0:00:00 AM,27,"Xanomeline Low Dose","Xan_Lo",1,84,">80",3,"CAUCASIAN",1,"M","Y","Y","Y","N","MedDRA version 8.0 (partially masked by request of MSSO)","N","N","N","N","N","N","HLGT_0346","HLT_0061","APPLICATION SITE BURNING",1/23/2013 0:00:00 AM,55,11/30/2012 0:00:00 AM
"01-701-1115",5,"CDISCPILOT01","ADAE","701","1115","VERBATIM_0716","APPLICATION SITE ERYTHEMA","GENERAL DISORDERS AND ADMINISTRATION SITE CONDITIONS","MODERATE","N",0,"PROBABLE","Y","Y","Y",,,,,,,1,12/2/2012 0:00:00 AM,,3,3,,,"Xanomeline Low Dose","Xan_Lo",1,84,">80",3,"CAUCASIAN",1,"M","Y","Y","Y","N","MedDRA version 8.0 (partially masked by request of MSSO)","N","N","N","N","N","N","HLGT_0152","HLT_0617","APPLICATION SITE REDNESS",1/23/2013 0:00:00 AM,55,11/30/2012 0:00:00 AM
"01-701-1115",6,"CDISCPILOT01","ADAE","701","1115","VERBATIM_1219","APPLICATION SITE PRURITUS","GENERAL DISORDERS AND ADMINISTRATION SITE CONDITIONS","MODERATE","N",0,"PROBABLE","Y","Y","Y",,,,,,,1,12/2/2012 0:00:00 AM,,3,3,,,"Xanomeline Low Dose","Xan_Lo",1,84,">80",3,"CAUCASIAN",1,"M","Y","Y","Y","N","MedDRA version 8.0 (partially masked by request of MSSO)","N","N","N","N","N","N","HLGT_0338","HLT_0317","APPLICATION SITE ITCHING",1/23/2013 0:00:00 AM,55,11/30/2012 0:00:00 AM
"01-701-1115",7,"CDISCPILOT01","ADAE","701","1115","VERBATIM_1777","FATIGUE","GENERAL DISORDERS AND ADMINISTRATION SITE CONDITIONS","MODERATE","N",0,"REMOTE","Y","Y","Y",,,1,,,,,1/14/2013 0:00:00 AM,,46,46,,,"Xanomeline Low Dose","Xan_Lo",1,84,">80",3,"CAUCASIAN",1,"M","Y","Y","Y","N","MedDRA version 8.0 (partially masked by request of MSSO)","N","N","N","N","N","N","HLGT_0181","HLT_0043","FATIGUE",1/23/2013 0:00:00 AM,55,11/30/2012 0:00:00 AM
"01-701-1115",8,"CDISCPILOT01","ADAE","701","1115","VERBATIM_0434","APPLICATION SITE IRRITATION","GENERAL DISORDERS AND ADMINISTRATION SITE CONDITIONS","MODERATE","N",0,"PROBABLE","Y","Y","Y",,,,,,,1,1/19/2013 0:00:00 AM,,51,51,,,"Xanomeline Low Dose","Xan_Lo",1,84,">80",3,"CAUCASIAN",1,"M","Y","Y","Y","N","MedDRA version 8.0 (partially masked by request of MSSO)","N","N","N","N","N","N","HLGT_0346","HLT_0061","APPLICATION SITE BURNING",1/23/2013 0:00:00 AM,55,11/30/2012 0:00:00 AM
"01-701-1115",9,"CDISCPILOT01","ADAE","701","1115","VERBATIM_0316","APPLICATION SITE DERMATITIS","GENERAL DISORDERS AND ADMINISTRATION SITE CONDITIONS","MODERATE","N",0,"PROBABLE","Y","Y","Y",,,1,,,,1,1/19/2013 0:00:00 AM,,51,51,,,"Xanomeline Low Dose","Xan_Lo",1,84,">80",3,"CAUCASIAN",1,"M","Y","Y","Y","N","MedDRA version 8.0 (partially masked by request of MSSO)","N","N","N","N","N","N","HLGT_0241","HLT_0343","APPLICATION SITE RASH",1/23/2013 0:00:00 AM,55,11/30/2012 0:00:00 AM
"01-701-1118",1,"CDISCPILOT01","ADAE","701","1118","VERBATIM_1139","COUGH","RESPIRATORY, THORACIC AND MEDIASTINAL DISORDERS","MILD","N",0,"NONE",,"N","N",,,,,,,,,,,,,,"Placebo","Pbo",0,52,"<65",1,"CAUCASIAN",1,"M","Y","Y","Y","Y","MedDRA version 8.0 (partially masked by request of MSSO)","N","N","N","N","N","N","HLGT_0280","HLT_0701","COUGH",9/9/2014 0:00:00 AM,182,3/12/2014 0:00:00 AM
"01-701-1130",1,"CDISCPILOT01","ADAE","701","1130","VERBATIM_1682","URINARY TRACT INFECTION","INFECTIONS AND INFESTATIONS","MILD","N",0,"NONE",,"Y","Y",1,1,1,,,,,3/9/2014 0:00:00 AM,,23,23,3/16/2014 0:00:00 AM,30,"Placebo","Pbo",0,84,">80",3,"CAUCASIAN",1,"M","Y","Y","Y","Y","MedDRA version 8.0 (partially masked by request of MSSO)","N","N","N","N","N","N","HLGT_0093","HLT_0161","URINARY TRACT INFECTION",8/16/2014 0:00:00 AM,183,2/15/2014 0:00:00 AM
"01-701-1130",2,"CDISCPILOT01","ADAE","701","1130","VERBATIM_1401","PYREXIA","GENERAL DISORDERS AND ADMINISTRATION SITE CONDITIONS","MILD","N",0,"NONE",,"Y","Y",,1,1,,,,,3/9/2014 0:00:00 AM,,23,23,3/9/2014 0:00:00 AM,23,"Placebo","Pbo",0,84,">80",3,"CAUCASIAN",1,"M","Y","Y","Y","Y","MedDRA version 8.0 (partially masked by request of MSSO)","N","N","N","N","N","N","HLGT_0652","HLT_0310","FEVER",8/16/2014 0:00:00 AM,183,2/15/2014 0:00:00 AM
"01-701-1130",3,"CDISCPILOT01","ADAE","701","1130","VERBATIM_1682","URINARY TRACT INFECTION","INFECTIONS AND INFESTATIONS","MILD","N",0,"NONE",,"Y","Y",,,,,,,,3/9/2014 0:00:00 AM,,23,23,3/16/2014 0:00:00 AM,30,"Placebo","Pbo",0,84,">80",3,"CAUCASIAN",1,"M","Y","Y","Y","Y","MedDRA version 8.0 (partially masked by request of MSSO)","N","N","N","N","N","N","HLGT_0093","HLT_0161","URINARY TRACT INFECTION",8/16/2014 0:00:00 AM,183,2/15/2014 0:00:00 AM
"01-701-1130",4,"CDISCPILOT01","ADAE","701","1130","VERBATIM_0805","EYE SWELLING","EYE DISORDERS","MILD","N",0,"NONE",,"Y","Y",,1,1,,,,,5/9/2014 0:00:00 AM,,84,84,5/9/2014 0:00:00 AM,84,"Placebo","Pbo",0,84,">80",3,"CAUCASIAN",1,"M","Y","Y","Y","Y","MedDRA version 8.0 (partially masked by request of MSSO)","N","N","N","N","N","N","HLGT_0466","HLT_0008","EYES SWOLLEN",8/16/2014 0:00:00 AM,183,2/15/2014 0:00:00 AM
"01-701-1130",5,"CDISCPILOT01","ADAE","701","1130","VERBATIM_0299","EYE ALLERGY","EYE DISORDERS","MILD","N",0,"NONE",,"Y","Y",,,1,,,,,5/9/2014 0:00:00 AM,,84,84,5/9/2014 0:00:00 AM,84,"Placebo","Pbo",0,84,">80",3,"CAUCASIAN",1,"M","Y","Y","Y","Y","MedDRA version 8.0 (partially masked by request of MSSO)","N","N","N","N","N","N","HLGT_0071","HLT_0256","EYE ALLERGY",8/16/2014 0:00:00 AM,183,2/15/2014 0:00:00 AM
"01-701-1130",6,"CDISCPILOT01","ADAE","701","1130","VERBATIM_1731","EYE PRURITUS","EYE DISORDERS","MILD","N",0,"REMOTE",,"Y","Y",,,1,,,,,5/22/2014 0:00:00 AM,,97,97,,,"Placebo","Pbo",0,84,">80",3,"CAUCASIAN",1,"M","Y","Y","Y","Y","MedDRA version 8.0 (partially masked by request of MSSO)","N","N","N","N","N","N","HLGT_0240","HLT_0523","EYE ITCHING",8/16/2014 0:00:00 AM,183,2/15/2014 0:00:00 AM
"01-701-1130",7,"CDISCPILOT01","ADAE","701","1130","VERBATIM_0826","PRURITUS","SKIN AND SUBCUTANEOUS TISSUE DISORDERS","MILD","N",0,"REMOTE",,"Y","Y",,1,1,,,,1,5/22/2014 0:00:00 AM,,97,97,,,"Placebo","Pbo",0,84,">80",3,"CAUCASIAN",1,"M","Y","Y","Y","Y","MedDRA version 8.0 (partially masked by request of MSSO)","N","N","N","N","N","N","HLGT_0695","HLT_0778","ITCHING BOTH HANDS",8/16/2014 0:00:00 AM,183,2/15/2014 0:00:00 AM
"01-701-1130",8,"CDISCPILOT01","ADAE","701","1130","VERBATIM_0615","NASAL CONGESTION","RESPIRATORY, THORACIC AND MEDIASTINAL DISORDERS","MILD","N",0,"REMOTE",,"Y","Y",,1,1,,,,,5/22/2014 0:00:00 AM,,97,97,,,"Placebo","Pbo",0,84,">80",3,"CAUCASIAN",1,"M","Y","Y","Y","Y","MedDRA version 8.0 (partially masked by request of MSSO)","N","N","N","N","N","N","HLGT_0549","HLT_0118","NASAL CONGESTION",8/16/2014 0:00:00 AM,183,2/15/2014 0:00:00 AM
"01-701-1133",1,"CDISCPILOT01","ADAE","701","1133","VERBATIM_0995","APPLICATION SITE ERYTHEMA","GENERAL DISORDERS AND ADMINISTRATION SITE CONDITIONS","MILD","N",0,"PROBABLE",,"Y","Y",1,1,1,,,,1,12/27/2012 0:00:00 AM,,61,61,,,"Xanomeline High Dose","Xan_Hi",2,81,">80",3,"CAUCASIAN",1,"F","Y","Y","Y","Y","MedDRA version 8.0 (partially masked by request of MSSO)","N","N","N","N","N","N","HLGT_0152","HLT_0617","APPLICATION SITE REDNESS",4/28/2013 0:00:00 AM,183,10/28/2012 0:00:00 AM
"01-701-1133",2,"CDISCPILOT01","ADAE","701","1133","VERBATIM_1219","APPLICATION SITE PRURITUS","GENERAL DISORDERS AND ADMINISTRATION SITE CONDITIONS","MILD","N",0,"PROBABLE",,"Y","Y",,,1,,,,1,12/27/2012 0:00:00 AM,,61,61,,,"Xanomeline High Dose","Xan_Hi",2,81,">80",3,"CAUCASIAN",1,"F","Y","Y","Y","Y","MedDRA version 8.0 (partially masked by request of MSSO)","N","N","N","N","N","N","HLGT_0338","HLT_0317","APPLICATION SITE ITCHING",4/28/2013 0:00:00 AM,183,10/28/2012 0:00:00 AM
"01-701-1133",3,"CDISCPILOT01","ADAE","701","1133","VERBATIM_0995","APPLICATION SITE ERYTHEMA","GENERAL DISORDERS AND ADMINISTRATION SITE CONDITIONS","MODERATE","N",0,"PROBABLE",,"Y","Y",,,,,,,1,12/27/2012 0:00:00 AM,,61,61,,,"Xanomeline High Dose","Xan_Hi",2,81,">80",3,"CAUCASIAN",1,"F","Y","Y","Y","Y","MedDRA version 8.0 (partially masked by request of MSSO)","N","N","N","N","N","N","HLGT_0152","HLT_0617","APPLICATION SITE REDNESS",4/28/2013 0:00:00 AM,183,10/28/2012 0:00:00 AM
"01-701-1133",4,"CDISCPILOT01","ADAE","701","1133","VERBATIM_1219","APPLICATION SITE PRURITUS","GENERAL DISORDERS AND ADMINISTRATION SITE CONDITIONS","MODERATE","N",0,"PROBABLE",,"Y","Y",,,,,,,1,12/27/2012 0:00:00 AM,,61,61,,,"Xanomeline High Dose","Xan_Hi",2,81,">80",3,"CAUCASIAN",1,"F","Y","Y","Y","Y","MedDRA version 8.0 (partially masked by request of MSSO)","N","N","N","N","N","N","HLGT_0338","HLT_0317","APPLICATION SITE ITCHING",4/28/2013 0:00:00 AM,183,10/28/2012 0:00:00 AM
"01-701-1146",1,"CDISCPILOT01","ADAE","701","1146","VERBATIM_1452","RASH","SKIN AND SUBCUTANEOUS TISSUE DISORDERS","MILD","N",0,"NONE","Y","N","N",,,,,,,1,5/16/2013 0:00:00 AM,,-4,-3,6/2/2013 0:00:00 AM,14,"Xanomeline High Dose","Xan_Hi",2,75,"65-80",2,"CAUCASIAN",1,"F","Y","Y","Y","N","MedDRA version 8.0 (partially masked by request of MSSO)","N","N","N","N","N","N","HLGT_0198","HLT_0762","RASH",6/26/2013 0:00:00 AM,38,5/20/2013 0:00:00 AM
"01-701-1146",2,"CDISCPILOT01","ADAE","701","1146","VERBATIM_1452","RASH","SKIN AND SUBCUTANEOUS TISSUE DISORDERS","MILD","N",0,"NONE","Y","N","N",,,,,,,1,5/16/2013 0:00:00 AM,,-4,-3,6/2/2013 0:00:00 AM,14,"Xanomeline High Dose","Xan_Hi",2,75,"65-80",2,"CAUCASIAN",1,"F","Y","Y","Y","N","MedDRA version 8.0 (partially masked by request of MSSO)","N","N","N","N","N","N","HLGT_0198","HLT_0762","RASH",6/26/2013 0:00:00 AM,38,5/20/2013 0:00:00 AM
"01-701-1146",3,"CDISCPILOT01","ADAE","701","1146","VERBATIM_0583","APPLICATION SITE IRRITATION","GENERAL DISORDERS AND ADMINISTRATION SITE CONDITIONS","MILD","N",0,"PROBABLE","Y","Y","Y",1,1,1,,,,1,6/1/2013 0:00:00 AM,,13,13,6/2/2013 0:00:00 AM,14,"Xanomeline High Dose","Xan_Hi",2,75,"65-80",2,"CAUCASIAN",1,"F","Y","Y","Y","N","MedDRA version 8.0 (partially masked by request of MSSO)","N","N","N","N","N","N","HLGT_0346","HLT_0061","APPLICATION SITE IRRITATION",6/26/2013 0:00:00 AM,38,5/20/2013 0:00:00 AM
"01-701-1146",4,"CDISCPILOT01","ADAE","701","1146","VERBATIM_0555","FATIGUE","GENERAL DISORDERS AND ADMINISTRATION SITE CONDITIONS","MILD","N",0,"POSSIBLE","Y","Y","Y",,,1,,,,,6/3/2013 0:00:00 AM,,15,15,,,"Xanomeline High Dose","Xan_Hi",2,75,"65-80",2,"CAUCASIAN",1,"F","Y","Y","Y","N","MedDRA version 8.0 (partially masked by request of MSSO)","N","N","N","N","N","N","HLGT_0181","HLT_0043","FATIGUE",6/26/2013 0:00:00 AM,38,5/20/2013 0:00:00 AM
"01-701-1146",5,"CDISCPILOT01","ADAE","701","1146","VERBATIM_0349","APPLICATION SITE ERYTHEMA","GENERAL DISORDERS AND ADMINISTRATION SITE CONDITIONS","MILD","N",0,"PROBABLE","Y","Y","Y",,,1,,,,1,6/10/2013 0:00:00 AM,,22,22,,,"Xanomeline High Dose","Xan_Hi",2,75,"65-80",2,"CAUCASIAN",1,"F","Y","Y","Y","N","MedDRA version 8.0 (partially masked by request of MSSO)","N","N","N","N","N","N","HLGT_0152","HLT_0617","APPLICATION SITE ERYTHEMA",6/26/2013 0:00:00 AM,38,5/20/2013 0:00:00 AM
"01-701-1146",6,"CDISCPILOT01","ADAE","701","1146","VERBATIM_0578","APPLICATION SITE PRURITUS","GENERAL DISORDERS AND ADMINISTRATION SITE CONDITIONS","MILD","N",0,"PROBABLE","Y","Y","Y",,,1,,,,1,6/10/2013 0:00:00 AM,,22,22,,,"Xanomeline High Dose","Xan_Hi",2,75,"65-80",2,"CAUCASIAN",1,"F","Y","Y","Y","N","MedDRA version 8.0 (partially masked by request of MSSO)","N","N","N","N","N","N","HLGT_0338","HLT_0317","APPLICATION SITE ITCHING",6/26/2013 0:00:00 AM,38,5/20/2013 0:00:00 AM
"01-701-1146",7,"CDISCPILOT01","ADAE","701","1146","VERBATIM_0349","APPLICATION SITE ERYTHEMA","GENERAL DISORDERS AND ADMINISTRATION SITE CONDITIONS","MODERATE","N",0,"PROBABLE","Y","Y","Y",,,,,,,1,6/10/2013 0:00:00 AM,,22,22,,,"Xanomeline High Dose","Xan_Hi",2,75,"65-80",2,"CAUCASIAN",1,"F","Y","Y","Y","N","MedDRA version 8.0 (partially masked by request of MSSO)","N","N","N","N","N","N","HLGT_0152","HLT_0617","APPLICATION SITE ERYTHEMA",6/26/2013 0:00:00 AM,38,5/20/2013 0:00:00 AM
"01-701-1146",8,"CDISCPILOT01","ADAE","701","1146","VERBATIM_0578","APPLICATION SITE PRURITUS","GENERAL DISORDERS AND ADMINISTRATION SITE CONDITIONS","MODERATE","N",0,"PROBABLE","Y","Y","Y",,,,,,,1,6/10/2013 0:00:00 AM,,22,22,,,"Xanomeline High Dose","Xan_Hi",2,75,"65-80",2,"CAUCASIAN",1,"F","Y","Y","Y","N","MedDRA version 8.0 (partially masked by request of MSSO)","N","N","N","N","N","N","HLGT_0338","HLT_0317","APPLICATION SITE ITCHING",6/26/2013 0:00:00 AM,38,5/20/2013 0:00:00 AM
"01-701-1146",9,"CDISCPILOT01","ADAE","701","1146","VERBATIM_0516","APPLICATION SITE PAIN","GENERAL DISORDERS AND ADMINISTRATION SITE CONDITIONS","MODERATE","N",0,"PROBABLE","Y","Y","Y",,,1,,,,1,6/22/2013 0:00:00 AM,,34,34,,,"Xanomeline High Dose","Xan_Hi",2,75,"65-80",2,"CAUCASIAN",1,"F","Y","Y","Y","N","MedDRA version 8.0 (partially masked by request of MSSO)","N","N","N","N","N","N","HLGT_0085","HLT_0342","APPLICATION SITE PAIN",6/26/2013 0:00:00 AM,38,5/20/2013 0:00:00 AM
"01-701-1146",10,"CDISCPILOT01","ADAE","701","1146","VERBATIM_0347","APPLICATION SITE VESICLES","GENERAL DISORDERS AND ADMINISTRATION SITE CONDITIONS","MODERATE","N",0,"PROBABLE","Y","Y","Y",,,1,,,,1,6/26/2013 0:00:00 AM,,38,38,,,"Xanomeline High Dose","Xan_Hi",2,75,"65-80",2,"CAUCASIAN",1,"F","Y","Y","Y","N","MedDRA version 8.0 (partially masked by request of MSSO)","N","N","N","N","N","N","HLGT_0576","HLT_0180","APPLICATION SITE VESICLES",6/26/2013 0:00:00 AM,38,5/20/2013 0:00:00 AM
"01-701-1146",11,"CDISCPILOT01","ADAE","701","1146","VERBATIM_0244","APPLICATION SITE IRRITATION","GENERAL DISORDERS AND ADMINISTRATION SITE CONDITIONS","MODERATE","N",0,"PROBABLE","Y","Y","Y",,,,,,,1,6/26/2013 0:00:00 AM,,38,38,,,"Xanomeline High Dose","Xan_Hi",2,75,"65-80",2,"CAUCASIAN",1,"F","Y","Y","Y","N","MedDRA version 8.0 (partially masked by request of MSSO)","N","N","N","N","N","N","HLGT_0346","HLT_0061","APPLICATION SITE BURNING",6/26/2013 0:00:00 AM,38,5/20/2013 0:00:00 AM
"01-701-1148",1,"CDISCPILOT01","ADAE","701","1148","VERBATIM_0922","APPLICATION SITE ERYTHEMA","GENERAL DISORDERS AND ADMINISTRATION SITE CONDITIONS","MILD","N",0,"PROBABLE",,"Y","Y",1,1,1,,,,1,8/25/2013 0:00:00 AM,,3,3,,,"Xanomeline High Dose","Xan_Hi",2,57,"<65",1,"CAUCASIAN",1,"M","Y","Y","Y","Y","MedDRA version 8.0 (partially masked by request of MSSO)","N","N","N","N","N","N","HLGT_0152","HLT_0617","APPLICATION SITE REDNESS",2/20/2014 0:00:00 AM,182,8/23/2013 0:00:00 AM
"01-701-1148",2,"CDISCPILOT01","ADAE","701","1148","VERBATIM_0445","APPLICATION SITE PRURITUS","GENERAL DISORDERS AND ADMINISTRATION SITE CONDITIONS","MILD","N",0,"PROBABLE",,"Y","Y",,,1,,,,1,8/25/2013 0:00:00 AM,,3,3,,,"Xanomeline High Dose","Xan_Hi",2,57,"<65",1,"CAUCASIAN",1,"M","Y","Y","Y","Y","MedDRA version 8.0 (partially masked by request of MSSO)","N","N","N","N","N","N","HLGT_0338","HLT_0317","APPLICATION SITE ITCHING",2/20/2014 0:00:00 AM,182,8/23/2013 0:00:00 AM
"01-701-1148",3,"CDISCPILOT01","ADAE","701","1148","VERBATIM_1765","LOWER RESPIRATORY TRACT INFECTION","INFECTIONS AND INFESTATIONS","MODERATE","N",0,"NONE",,"Y","Y",,1,1,,,,,10/12/2013 0:00:00 AM,,51,51,11/10/2013 0:00:00 AM,80,"Xanomeline High Dose","Xan_Hi",2,57,"<65",1,"CAUCASIAN",1,"M","Y","Y","Y","Y","MedDRA version 8.0 (partially masked by request of MSSO)","N","N","N","N","N","N","HLGT_0217","HLT_0052","CHEST COLD",2/20/2014 0:00:00 AM,182,8/23/2013 0:00:00 AM
"01-701-1148",4,"CDISCPILOT01","ADAE","701","1148","VERBATIM_1765","LOWER RESPIRATORY TRACT INFECTION","INFECTIONS AND INFESTATIONS","MODERATE","N",0,"NONE",,"Y","Y",,,,,,,,10/12/2013 0:00:00 AM,,51,51,11/10/2013 0:00:00 AM,80,"Xanomeline High Dose","Xan_Hi",2,57,"<65",1,"CAUCASIAN",1,"M","Y","Y","Y","Y","MedDRA version 8.0 (partially masked by request of MSSO)","N","N","N","N","N","N","HLGT_0217","HLT_0052","CHEST COLD",2/20/2014 0:00:00 AM,182,8/23/2013 0:00:00 AM
"01-701-1148",5,"CDISCPILOT01","ADAE","701","1148","VERBATIM_0630","FLANK PAIN","MUSCULOSKELETAL AND CONNECTIVE TISSUE DISORDERS","MODERATE","N",0,"NONE",,"Y","Y",,1,1,,,,,12/15/2013 0:00:00 AM,,115,115,12/17/2013 0:00:00 AM,117,"Xanomeline High Dose","Xan_Hi",2,57,"<65",1,"CAUCASIAN",1,"M","Y","Y","Y","Y","MedDRA version 8.0 (partially masked by request of MSSO)","N","N","N","N","N","N","HLGT_0543","HLT_0484","FLANK PAIN",2/20/2014 0:00:00 AM,182,8/23/2013 0:00:00 AM
"01-701-1148",6,"CDISCPILOT01","ADAE","701","1148","VERBATIM_1748","CALCULUS URETHRAL","RENAL AND URINARY DISORDERS","MODERATE","N",0,"NONE",,"Y","Y",,1,1,,,,,12/17/2013 0:00:00 AM,,117,117,12/17/2013 0:00:00 AM,117,"Xanomeline High Dose","Xan_Hi",2,57,"<65",1,"CAUCASIAN",1,"M","Y","Y","Y","Y","MedDRA version 8.0 (partially masked by request of MSSO)","N","N","N","N","N","N","HLGT_0414","HLT_0550","URETHRAL CALCULUS",2/20/2014 0:00:00 AM,182,8/23/2013 0:00:00 AM
"01-701-1148",7,"CDISCPILOT01","ADAE","701","1148","VERBATIM_0847","EPISTAXIS","RESPIRATORY, THORACIC AND MEDIASTINAL DISORDERS","MILD","N",0,"NONE",,"Y","Y",,1,1,,,,,1/3/2014 0:00:00 AM,,134,134,1/3/2014 0:00:00 AM,134,"Xanomeline High Dose","Xan_Hi",2,57,"<65",1,"CAUCASIAN",1,"M","Y","Y","Y","Y","MedDRA version 8.0 (partially masked by request of MSSO)","N","N","N","N","N","N","HLGT_0577","HLT_0386","NOSE BLEED",2/20/2014 0:00:00 AM,182,8/23/2013 0:00:00 AM
"01-701-1148",8,"CDISCPILOT01","ADAE","701","1148","VERBATIM_0800","DYSPEPSIA","GASTROINTESTINAL DISORDERS","MODERATE","N",0,"NONE",,"N","N",,,,,,,,2/1/2012 0:00:00 AM,"D",-569,-568,,,"Xanomeline High Dose","Xan_Hi",2,57,"<65",1,"CAUCASIAN",1,"M","Y","Y","Y","Y","MedDRA version 8.0 (partially masked by request of MSSO)","N","N","N","N","N","N","HLGT_0716","HLT_0244","INDIGESTION",2/20/2014 0:00:00 AM,182,8/23/2013 0:00:00 AM
"01-701-1148",9,"CDISCPILOT01","ADAE","701","1148","VERBATIM_0591","DEPRESSED MOOD","PSYCHIATRIC DISORDERS","MODERATE","N",0,"NONE",,"N","N",,,,,,,,7/29/2013 0:00:00 AM,,-25,-24,,,"Xanomeline High Dose","Xan_Hi",2,57,"<65",1,"CAUCASIAN",1,"M","Y","Y","Y","Y","MedDRA version 8.0 (partially masked by request of MSSO)","N","N","N","N","N","N","HLGT_0122","HLT_0784","DEPRESSED MOOD",2/20/2014 0:00:00 AM,182,8/23/2013 0:00:00 AM
"01-701-1148",10,"CDISCPILOT01","ADAE","701","1148","VERBATIM_0022","ACTINIC KERATOSIS","SKIN AND SUBCUTANEOUS TISSUE DISORDERS","MILD","N",0,"NONE",,"Y","Y",,1,1,,,,1,2/12/2014 0:00:00 AM,,174,174,,,"Xanomeline High Dose","Xan_Hi",2,57,"<65",1,"CAUCASIAN",1,"M","Y","Y","Y","Y","MedDRA version 8.0 (partially masked by request of MSSO)","N","N","N","N","N","N","HLGT_0490","HLT_0609","ACTINIC KERATOSIS",2/20/2014 0:00:00 AM,182,8/23/2013 0:00:00 AM
"01-701-1153",1,"CDISCPILOT01","ADAE","701","1153","VERBATIM_0156","INCREASED APPETITE","METABOLISM AND NUTRITION DISORDERS","MILD","N",0,"POSSIBLE",,"Y","Y",1,1,1,,,,,10/13/2013 0:00:00 AM,,21,21,11/6/2013 0:00:00 AM,45,"Placebo","Pbo",0,79,"65-80",2,"CAUCASIAN",1,"F","Y","Y","Y","Y","MedDRA version 8.0 (partially masked by request of MSSO)","N","N","N","N","N","N","HLGT_0769","HLT_0566","INCREASED APPETITE",3/16/2014 0:00:00 AM,175,9/23/2013 0:00:00 AM
"01-701-1153",2,"CDISCPILOT01","ADAE","701","1153","VERBATIM_0156","INCREASED APPETITE","METABOLISM AND NUTRITION DISORDERS","MILD","N",0,"POSSIBLE",,"Y","Y",,,,,,,,10/13/2013 0:00:00 AM,,21,21,11/6/2013 0:00:00 AM,45,"Placebo","Pbo",0,79,"65-80",2,"CAUCASIAN",1,"F","Y","Y","Y","Y","MedDRA version 8.0 (partially masked by request of MSSO)","N","N","N","N","N","N","HLGT_0769","HLT_0566","INCREASED APPETITE",3/16/2014 0:00:00 AM,175,9/23/2013 0:00:00 AM
"01-701-1180",1,"CDISCPILOT01","ADAE","701","1180","VERBATIM_1453","VOMITING","GASTROINTESTINAL DISORDERS","MILD","N",0,"NONE","Y","Y","Y",1,1,1,,,,,2/12/2013 0:00:00 AM,,1,1,2/12/2013 0:00:00 AM,1,"Xanomeline High Dose","Xan_Hi",2,56,"<65",1,"CAUCASIAN",1,"M","Y","Y","Y","N","MedDRA version 8.0 (partially masked by request of MSSO)","N","N","N","N","N","N","HLGT_0350","HLT_0016","VOMITING",3/18/2013 0:00:00 AM,35,2/12/2013 0:00:00 AM
"01-701-1180",2,"CDISCPILOT01","ADAE","701","1180","VERBATIM_1453","VOMITING","GASTROINTESTINAL DISORDERS","MILD","N",0,"NONE","Y","Y","Y",,,,,,,,2/12/2013 0:00:00 AM,,1,1,2/12/2013 0:00:00 AM,1,"Xanomeline High Dose","Xan_Hi",2,56,"<65",1,"CAUCASIAN",1,"M","Y","Y","Y","N","MedDRA version 8.0 (partially masked by request of MSSO)","N","N","N","N","N","N","HLGT_0350","HLT_0016","VOMITING",3/18/2013 0:00:00 AM,35,2/12/2013 0:00:00 AM
"01-701-1180",3,"CDISCPILOT01","ADAE","701","1180","VERBATIM_1179","MICTURITION URGENCY","RENAL AND URINARY DISORDERS","MILD","N",0,"POSSIBLE","Y","Y","Y",,1,1,,,,,2/15/2013 0:00:00 AM,,4,4,3/19/2013 0:00:00 AM,36,"Xanomeline High Dose","Xan_Hi",2,56,"<65",1,"CAUCASIAN",1,"M","Y","Y","Y","N","MedDRA version 8.0 (partially masked by request of MSSO)","N","N","N","N","N","N","HLGT_0483","HLT_0294","URINARY URGENCY",3/18/2013 0:00:00 AM,35,2/12/2013 0:00:00 AM
"01-701-1180",4,"CDISCPILOT01","ADAE","701","1180","VERBATIM_0929","HEADACHE","NERVOUS SYSTEM DISORDERS","MODERATE","N",0,"NONE","Y","N","N",,,,,,,,,,,,,,"Xanomeline High Dose","Xan_Hi",2,56,"<65",1,"CAUCASIAN",1,"M","Y","Y","Y","N","MedDRA version 8.0 (partially masked by request of MSSO)","N","N","N","N","N","N","HLGT_0344","HLT_0064","HEADACHE",3/18/2013 0:00:00 AM,35,2/12/2013 0:00:00 AM
"01-701-1180",5,"CDISCPILOT01","ADAE","701","1180","VERBATIM_1698","NASOPHARYNGITIS","INFECTIONS AND INFESTATIONS","MILD","N",0,"NONE","Y","Y","Y",,1,1,,,,,3/6/2013 0:00:00 AM,,23,23,3/7/2013 0:00:00 AM,24,"Xanomeline High Dose","Xan_Hi",2,56,"<65",1,"CAUCASIAN",1,"M","Y","Y","Y","N","MedDRA version 8.0 (partially masked by request of MSSO)","N","N","N","N","N","N","HLGT_0709","HLT_0036","COLD",3/18/2013 0:00:00 AM,35,2/12/2013 0:00:00 AM
"01-701-1180",6,"CDISCPILOT01","ADAE","701","1180","VERBATIM_1179","MICTURITION URGENCY","RENAL AND URINARY DISORDERS","MILD","N",0,"POSSIBLE","Y","Y","Y",,,,,,,,2/15/2013 0:00:00 AM,,4,4,3/19/2013 0:00:00 AM,36,"Xanomeline High Dose","Xan_Hi",2,56,"<65",1,"CAUCASIAN",1,"M","Y","Y","Y","N","MedDRA version 8.0 (partially masked by request of MSSO)","N","N","N","N","N","N","HLGT_0483","HLT_0294","URINARY URGENCY",3/18/2013 0:00:00 AM,35,2/12/2013 0:00:00 AM
"01-701-1180",7,"CDISCPILOT01","ADAE","701","1180","VERBATIM_1474","APPLICATION SITE VESICLES","GENERAL DISORDERS AND ADMINISTRATION SITE CONDITIONS","MODERATE","N",0,"POSSIBLE","Y","N","Y",,1,1,,,,1,3/19/2013 0:00:00 AM,,36,36,,,"Xanomeline High Dose","Xan_Hi",2,56,"<65",1,"CAUCASIAN",1,"M","Y","Y","Y","N","MedDRA version 8.0 (partially masked by request of MSSO)","N","N","N","N","N","N","HLGT_0576","HLT_0180","APPLICATION SITE BLISTER",3/18/2013 0:00:00 AM,35,2/12/2013 0:00:00 AM
"01-701-1180",8,"CDISCPILOT01","ADAE","701","1180","VERBATIM_1219","APPLICATION SITE PRURITUS","GENERAL DISORDERS AND ADMINISTRATION SITE CONDITIONS","MODERATE","N",0,"POSSIBLE","Y","N","Y",,,1,,,,1,3/19/2013 0:00:00 AM,,36,36,,,"Xanomeline High Dose","Xan_Hi",2,56,"<65",1,"CAUCASIAN",1,"M","Y","Y","Y","N","MedDRA version 8.0 (partially masked by request of MSSO)","N","N","N","N","N","N","HLGT_0338","HLT_0317","APPLICATION SITE ITCHING",3/18/2013 0:00:00 AM,35,2/12/2013 0:00:00 AM
"01-701-1180",9,"CDISCPILOT01","ADAE","701","1180","VERBATIM_0709","APPLICATION SITE ERYTHEMA","GENERAL DISORDERS AND ADMINISTRATION SITE CONDITIONS","MODERATE","N",0,"POSSIBLE","Y","N","Y",,,1,,,,1,3/19/2013 0:00:00 AM,,36,36,,,"Xanomeline High Dose","Xan_Hi",2,56,"<65",1,"CAUCASIAN",1,"M","Y","Y","Y","N","MedDRA version 8.0 (partially masked by request of MSSO)","N","N","N","N","N","N","HLGT_0152","HLT_0617","APPLICATION SITE ERYTHEMA",3/18/2013 0:00:00 AM,35,2/12/2013 0:00:00 AM
"01-701-1181",1,"CDISCPILOT01","ADAE","701","1181","VERBATIM_0499","AGITATION","PSYCHIATRIC DISORDERS","MODERATE","N",0,"NONE","Y","Y","Y",1,1,1,,,,,12/9/2013 0:00:00 AM,,5,5,12/9/2013 0:00:00 AM,5,"Xanomeline High Dose","Xan_Hi",2,79,"65-80",2,"CAUCASIAN",1,"F","Y","Y","Y","N","MedDRA version 8.0 (partially masked by request of MSSO)","N","N","N","N","N","N","HLGT_0170","HLT_0140","AGITATION",12/9/2013 0:00:00 AM,5,12/5/2013 0:00:00 AM
"01-701-1188",1,"CDISCPILOT01","ADAE","701","1188","VERBATIM_0300","ERYTHEMA","SKIN AND SUBCUTANEOUS TISSUE DISORDERS","MILD","N",0,"PROBABLE","Y","Y","Y",1,1,1,,,,1,2/16/2013 0:00:00 AM,,2,2,,,"Xanomeline Low Dose","Xan_Lo",1,71,"65-80",2,"CAUCASIAN",1,"M","Y","Y","Y","N","MedDRA version 8.0 (partially masked by request of MSSO)","N","N","N","N","N","N","HLGT_0192","HLT_0284","ERYTHEMA",3/24/2013 0:00:00 AM,38,2/15/2013 0:00:00 AM
"01-701-1188",2,"CDISCPILOT01","ADAE","701","1188","VERBATIM_0216","PRURITUS","SKIN AND SUBCUTANEOUS TISSUE DISORDERS","MILD","N",0,"PROBABLE","Y","Y","Y",,,1,,,,1,2/16/2013 0:00:00 AM,,2,2,,,"Xanomeline Low Dose","Xan_Lo",1,71,"65-80",2,"CAUCASIAN",1,"M","Y","Y","Y","N","MedDRA version 8.0 (partially masked by request of MSSO)","N","N","N","N","N","N","HLGT_0695","HLT_0778","ITCHING",3/24/2013 0:00:00 AM,38,2/15/2013 0:00:00 AM
"01-701-1188",3,"CDISCPILOT01","ADAE","701","1188","VERBATIM_0300","ERYTHEMA","SKIN AND SUBCUTANEOUS TISSUE DISORDERS","MODERATE","N",0,"PROBABLE","Y","Y","Y",,,,,,,1,2/16/2013 0:00:00 AM,,2,2,,,"Xanomeline Low Dose","Xan_Lo",1,71,"65-80",2,"CAUCASIAN",1,"M","Y","Y","Y","N","MedDRA version 8.0 (partially masked by request of MSSO)","N","N","N","N","N","N","HLGT_0192","HLT_0284","ERYTHEMA",3/24/2013 0:00:00 AM,38,2/15/2013 0:00:00 AM
"01-701-1188",4,"CDISCPILOT01","ADAE","701","1188","VERBATIM_0216","PRURITUS","SKIN AND SUBCUTANEOUS TISSUE DISORDERS","MODERATE","N",0,"PROBABLE","Y","Y","Y",,,,,,,1,2/16/2013 0:00:00 AM,,2,2,,,"Xanomeline Low Dose","Xan_Lo",1,71,"65-80",2,"CAUCASIAN",1,"M","Y","Y","Y","N","MedDRA version 8.0 (partially masked by request of MSSO)","N","N","N","N","N","N","HLGT_0695","HLT_0778","ITCHING",3/24/2013 0:00:00 AM,38,2/15/2013 0:00:00 AM
"01-701-1188",5,"CDISCPILOT01","ADAE","701","1188","VERBATIM_0252","URTICARIA","SKIN AND SUBCUTANEOUS TISSUE DISORDERS","MILD","N",0,"PROBABLE","Y","Y","Y",,,1,,,,1,3/4/2013 0:00:00 AM,,18,18,,,"Xanomeline Low Dose","Xan_Lo",1,71,"65-80",2,"CAUCASIAN",1,"M","Y","Y","Y","N","MedDRA version 8.0 (partially masked by request of MSSO)","N","N","N","N","N","N","HLGT_0705","HLT_0420","WELTS",3/24/2013 0:00:00 AM,38,2/15/2013 0:00:00 AM
"01-701-1188",6,"CDISCPILOT01","ADAE","701","1188","VERBATIM_0252","URTICARIA","SKIN AND SUBCUTANEOUS TISSUE DISORDERS","MODERATE","N",0,"PROBABLE","Y","Y","Y",,,,,,,1,3/4/2013 0:00:00 AM,,18,18,,,"Xanomeline Low Dose","Xan_Lo",1,71,"65-80",2,"CAUCASIAN",1,"M","Y","Y","Y","N","MedDRA version 8.0 (partially masked by request of MSSO)","N","N","N","N","N","N","HLGT_0705","HLT_0420","WELTS",3/24/2013 0:00:00 AM,38,2/15/2013 0:00:00 AM
"01-701-1188",7,"CDISCPILOT01","ADAE","701","1188","VERBATIM_0761","APPLICATION SITE URTICARIA","GENERAL DISORDERS AND ADMINISTRATION SITE CONDITIONS","MILD","N",0,"PROBABLE","Y","Y","Y",,1,1,,,,1,3/21/2013 0:00:00 AM,,35,35,,,"Xanomeline Low Dose","Xan_Lo",1,71,"65-80",2,"CAUCASIAN",1,"M","Y","Y","Y","N","MedDRA version 8.0 (partially masked by request of MSSO)","N","N","N","N","N","N","HLGT_0233","HLT_0196","APPLICATION SITE URTICARIA",3/24/2013 0:00:00 AM,38,2/15/2013 0:00:00 AM
"01-701-1188",8,"CDISCPILOT01","ADAE","701","1188","VERBATIM_1569","URTICARIA","SKIN AND SUBCUTANEOUS TISSUE DISORDERS","MILD","N",0,"PROBABLE","Y","Y","Y",,,,,,,1,3/21/2013 0:00:00 AM,,35,35,,,"Xanomeline Low Dose","Xan_Lo",1,71,"65-80",2,"CAUCASIAN",1,"M","Y","Y","Y","N","MedDRA version 8.0 (partially masked by request of MSSO)","N","N","N","N","N","N","HLGT_0705","HLT_0420","WELTS",3/24/2013 0:00:00 AM,38,2/15/2013 0:00:00 AM
"01-701-1192",1,"CDISCPILOT01","ADAE","701","1192","VERBATIM_0819","NASAL MUCOSA BIOPSY","INVESTIGATIONS","MILD","N",0,"NONE",,"Y","Y",1,1,1,,,,,8/3/2012 0:00:00 AM,,13,13,8/3/2012 0:00:00 AM,13,"Xanomeline Low Dose","Xan_Lo",1,80,"65-80",2,"CAUCASIAN",1,"F","Y","Y","Y","Y","MedDRA version 8.0 (partially masked by request of MSSO)","N","N","N","N","N","N","HLGT_0396","HLT_0680","NASAL MUCOSA BIOPSY",1/20/2013 0:00:00 AM,183,7/22/2012 0:00:00 AM
"01-701-1192",2,"CDISCPILOT01","ADAE","701","1192","VERBATIM_0589","SECRETION DISCHARGE","GENERAL DISORDERS AND ADMINISTRATION SITE CONDITIONS","MILD","N",0,"NONE",,"Y","Y",,1,1,,,,,8/7/2012 0:00:00 AM,,17,17,9/14/2012 0:00:00 AM,55,"Xanomeline Low Dose","Xan_Lo",1,80,"65-80",2,"CAUCASIAN",1,"F","Y","Y","Y","Y","MedDRA version 8.0 (partially masked by request of MSSO)","N","N","N","N","N","N","HLGT_0575","HLT_0683","SECRETION DISCHARGE",1/20/2013 0:00:00 AM,183,7/22/2012 0:00:00 AM
"01-701-1192",3,"CDISCPILOT01","ADAE","701","1192","VERBATIM_1470","ERYTHEMA","SKIN AND SUBCUTANEOUS TISSUE DISORDERS","MILD","N",0,"NONE",,"Y","Y",,1,1,,,,1,8/7/2012 0:00:00 AM,,17,17,9/14/2012 0:00:00 AM,55,"Xanomeline Low Dose","Xan_Lo",1,80,"65-80",2,"CAUCASIAN",1,"F","Y","Y","Y","Y","MedDRA version 8.0 (partially masked by request of MSSO)","N","N","N","N","N","N","HLGT_0192","HLT_0284","ERYTHEMA FACIAL",1/20/2013 0:00:00 AM,183,7/22/2012 0:00:00 AM
"01-701-1192",4,"CDISCPILOT01","ADAE","701","1192","VERBATIM_1421","COUGH","RESPIRATORY, THORACIC AND MEDIASTINAL DISORDERS","MODERATE","N",0,"NONE",,"N","N",,,,,,,,6/1/2010 0:00:00 AM,"D",-782,-781,,,"Xanomeline Low Dose","Xan_Lo",1,80,"65-80",2,"CAUCASIAN",1,"F","Y","Y","Y","Y","MedDRA version 8.0 (partially masked by request of MSSO)","N","N","N","N","N","N","HLGT_0280","HLT_0701","COUGH",1/20/2013 0:00:00 AM,183,7/22/2012 0:00:00 AM
"01-701-1192",5,"CDISCPILOT01","ADAE","701","1192","VERBATIM_0589","SECRETION DISCHARGE","GENERAL DISORDERS AND ADMINISTRATION SITE CONDITIONS","MILD","N",0,"NONE",,"Y","Y",,,,,,,,8/7/2012 0:00:00 AM,,17,17,9/14/2012 0:00:00 AM,55,"Xanomeline Low Dose","Xan_Lo",1,80,"65-80",2,"CAUCASIAN",1,"F","Y","Y","Y","Y","MedDRA version 8.0 (partially masked by request of MSSO)","N","N","N","N","N","N","HLGT_0575","HLT_0683","SECRETION DISCHARGE",1/20/2013 0:00:00 AM,183,7/22/2012 0:00:00 AM
"01-701-1192",6,"CDISCPILOT01","ADAE","701","1192","VERBATIM_1470","ERYTHEMA","SKIN AND SUBCUTANEOUS TISSUE DISORDERS","MILD","N",0,"NONE",,"Y","Y",,,,,,,1,8/7/2012 0:00:00 AM,,17,17,9/14/2012 0:00:00 AM,55,"Xanomeline Low Dose","Xan_Lo",1,80,"65-80",2,"CAUCASIAN",1,"F","Y","Y","Y","Y","MedDRA version 8.0 (partially masked by request of MSSO)","N","N","N","N","N","N","HLGT_0192","HLT_0284","ERYTHEMA FACIAL",1/20/2013 0:00:00 AM,183,7/22/2012 0:00:00 AM
"01-701-1192",7,"CDISCPILOT01","ADAE","701","1192","VERBATIM_0919","PNEUMONIA","INFECTIONS AND INFESTATIONS","MODERATE","N",0,"NONE",,"Y","Y",,1,1,,,,,9/7/2012 0:00:00 AM,,48,48,10/6/2012 0:00:00 AM,77,"Xanomeline Low Dose","Xan_Lo",1,80,"65-80",2,"CAUCASIAN",1,"F","Y","Y","Y","Y","MedDRA version 8.0 (partially masked by request of MSSO)","N","N","N","N","Y","N","HLGT_0671","HLT_0251","PNEUMONIA",1/20/2013 0:00:00 AM,183,7/22/2012 0:00:00 AM
"01-701-1192",8,"CDISCPILOT01","ADAE","701","1192","VERBATIM_1050","MUSCULAR WEAKNESS","MUSCULOSKELETAL AND CONNECTIVE TISSUE DISORDERS","MODERATE","N",0,"NONE",,"Y","Y",,1,1,,,,,9/7/2012 0:00:00 AM,,48,48,9/30/2012 0:00:00 AM,71,"Xanomeline Low Dose","Xan_Lo",1,80,"65-80",2,"CAUCASIAN",1,"F","Y","Y","Y","Y","MedDRA version 8.0 (partially masked by request of MSSO)","N","N","N","N","N","N","HLGT_0211","HLT_0444","MUSCULAR WEAKNESS",1/20/2013 0:00:00 AM,183,7/22/2012 0:00:00 AM
"01-701-1192",9,"CDISCPILOT01","ADAE","701","1192","VERBATIM_1421","COUGH","RESPIRATORY, THORACIC AND MEDIASTINAL DISORDERS","MILD","N",0,"NONE",,"N","N",,,,,,,,6/1/2010 0:00:00 AM,"D",-782,-781,,,"Xanomeline Low Dose","Xan_Lo",1,80,"65-80",2,"CAUCASIAN",1,"F","Y","Y","Y","Y","MedDRA version 8.0 (partially masked by request of MSSO)","N","N","N","N","N","N","HLGT_0280","HLT_0701","COUGH",1/20/2013 0:00:00 AM,183,7/22/2012 0:00:00 AM
"01-701-1192",10,"CDISCPILOT01","ADAE","701","1192","VERBATIM_0919","PNEUMONIA","INFECTIONS AND INFESTATIONS","MODERATE","N",0,"NONE",,"Y","Y",,,,,,,,9/7/2012 0:00:00 AM,,48,48,10/6/2012 0:00:00 AM,77,"Xanomeline Low Dose","Xan_Lo",1,80,"65-80",2,"CAUCASIAN",1,"F","Y","Y","Y","Y","MedDRA version 8.0 (partially masked by request of MSSO)","N","N","N","N","Y","N","HLGT_0671","HLT_0251","PNEUMONIA",1/20/2013 0:00:00 AM,183,7/22/2012 0:00:00 AM
"01-701-1192",11,"CDISCPILOT01","ADAE","701","1192","VERBATIM_1050","MUSCULAR WEAKNESS","MUSCULOSKELETAL AND CONNECTIVE TISSUE DISORDERS","MODERATE","N",0,"NONE",,"Y","Y",,,,,,,,9/7/2012 0:00:00 AM,,48,48,9/30/2012 0:00:00 AM,71,"Xanomeline Low Dose","Xan_Lo",1,80,"65-80",2,"CAUCASIAN",1,"F","Y","Y","Y","Y","MedDRA version 8.0 (partially masked by request of MSSO)","N","N","N","N","N","N","HLGT_0211","HLT_0444","MUSCULAR WEAKNESS",1/20/2013 0:00:00 AM,183,7/22/2012 0:00:00 AM
"01-701-1192",12,"CDISCPILOT01","ADAE","701","1192","VERBATIM_1067","APPLICATION SITE IRRITATION","GENERAL DISORDERS AND ADMINISTRATION SITE CONDITIONS","MILD","N",0,"PROBABLE",,"Y","Y",,,1,,,,1,12/5/2012 0:00:00 AM,,137,137,12/16/2012 0:00:00 AM,148,"Xanomeline Low Dose","Xan_Lo",1,80,"65-80",2,"CAUCASIAN",1,"F","Y","Y","Y","Y","MedDRA version 8.0 (partially masked by request of MSSO)","N","N","N","N","N","N","HLGT_0346","HLT_0061","APPLICATION SITE BURNING",1/20/2013 0:00:00 AM,183,7/22/2012 0:00:00 AM
"01-701-1192",13,"CDISCPILOT01","ADAE","701","1192","VERBATIM_1444","APPLICATION SITE ERYTHEMA","GENERAL DISORDERS AND ADMINISTRATION SITE CONDITIONS","MILD","N",0,"PROBABLE",,"Y","Y",,,1,,,,1,12/5/2012 0:00:00 AM,,137,137,,,"Xanomeline Low Dose","Xan_Lo",1,80,"65-80",2,"CAUCASIAN",1,"F","Y","Y","Y","Y","MedDRA version 8.0 (partially masked by request of MSSO)","N","N","N","N","N","N","HLGT_0152","HLT_0617","APPLICATION SITE REDNESS",1/20/2013 0:00:00 AM,183,7/22/2012 0:00:00 AM
"01-701-1192",14,"CDISCPILOT01","ADAE","701","1192","VERBATIM_0578","APPLICATION SITE PRURITUS","GENERAL DISORDERS AND ADMINISTRATION SITE CONDITIONS","MILD","N",0,"PROBABLE",,"Y","Y",,,1,,,,1,12/5/2012 0:00:00 AM,,137,137,,,"Xanomeline Low Dose","Xan_Lo",1,80,"65-80",2,"CAUCASIAN",1,"F","Y","Y","Y","Y","MedDRA version 8.0 (partially masked by request of MSSO)","N","N","N","N","N","N","HLGT_0338","HLT_0317","APPLICATION SITE ITCHING",1/20/2013 0:00:00 AM,183,7/22/2012 0:00:00 AM
"01-701-1192",15,"CDISCPILOT01","ADAE","701","1192","VERBATIM_1067","APPLICATION SITE IRRITATION","GENERAL DISORDERS AND ADMINISTRATION SITE CONDITIONS","MILD","N",0,"PROBABLE",,"Y","Y",,,,,,,1,12/5/2012 0:00:00 AM,,137,137,12/16/2012 0:00:00 AM,148,"Xanomeline Low Dose","Xan_Lo",1,80,"65-80",2,"CAUCASIAN",1,"F","Y","Y","Y","Y","MedDRA version 8.0 (partially masked by request of MSSO)","N","N","N","N","N","N","HLGT_0346","HLT_0061","APPLICATION SITE BURNING",1/20/2013 0:00:00 AM,183,7/22/2012 0:00:00 AM
"01-701-1203",1,"CDISCPILOT01","ADAE","701","1203","VERBATIM_1020","EYE LASER SURGERY","SURGICAL AND MEDICAL PROCEDURES","MILD","N",0,"NONE",,"Y","Y",1,1,1,,,,,3/21/2013 0:00:00 AM,,48,48,3/21/2013 0:00:00 AM,48,"Placebo","Pbo",0,81,">80",3,"AFRICAN DESCENT (NEGRO, BLACK)",2,"F","Y","Y","Y","Y","MedDRA version 8.0 (partially masked by request of MSSO)","N","N","N","N","N","N","HLGT_0189","HLT_0355","EYE LASER SURGERY",8/3/2013 0:00:00 AM,183,2/2/2013 0:00:00 AM
"01-701-1211",1,"CDISCPILOT01","ADAE","701","1211","VERBATIM_1219","APPLICATION SITE PRURITUS","GENERAL DISORDERS AND ADMINISTRATION SITE CONDITIONS","MILD","N",0,"POSSIBLE",,"Y","Y",1,1,1,,,,1,11/16/2012 0:00:00 AM,,2,2,,,"Xanomeline Low Dose","Xan_Lo",1,76,"65-80",2,"CAUCASIAN",1,"F","Y","Y","Y","N","MedDRA version 8.0 (partially masked by request of MSSO)","N","N","N","N","N","N","HLGT_0338","HLT_0317","APPLICATION SITE ITCHING",1/12/2013 0:00:00 AM,59,11/15/2012 0:00:00 AM
"01-701-1211",2,"CDISCPILOT01","ADAE","701","1211","VERBATIM_0394","JOINT DISLOCATION","INJURY, POISONING AND PROCEDURAL COMPLICATIONS","MODERATE","N",0,"NONE",,"Y","Y",,1,1,,,,,11/21/2012 0:00:00 AM,,7,7,11/21/2012 0:00:00 AM,7,"Xanomeline Low Dose","Xan_Lo",1,76,"65-80",2,"CAUCASIAN",1,"F","Y","Y","Y","N","MedDRA version 8.0 (partially masked by request of MSSO)","N","N","N","N","N","N","HLGT_0227","HLT_0035","SHOULDER DISLOCATION",1/12/2013 0:00:00 AM,59,11/15/2012 0:00:00 AM
"01-701-1211",3,"CDISCPILOT01","ADAE","701","1211","VERBATIM_1643","SHOULDER PAIN","MUSCULOSKELETAL AND CONNECTIVE TISSUE DISORDERS","MILD","N",0,"NONE",,"Y","Y",,1,1,,,,,11/21/2012 0:00:00 AM,,7,7,,,"Xanomeline Low Dose","Xan_Lo",1,76,"65-80",2,"CAUCASIAN",1,"F","Y","Y","Y","N","MedDRA version 8.0 (partially masked by request of MSSO)","N","N","N","N","N","N","HLGT_0288","HLT_0527","SHOULDER PAIN",1/12/2013 0:00:00 AM,59,11/15/2012 0:00:00 AM
"01-701-1211",4,"CDISCPILOT01","ADAE","701","1211","VERBATIM_0312","INCONTINENCE","RENAL AND URINARY DISORDERS","MILD","N",0,"NONE",,"Y","Y",,1,1,,,,,11/22/2012 0:00:00 AM,,8,8,,,"Xanomeline Low Dose","Xan_Lo",1,76,"65-80",2,"CAUCASIAN",1,"F","Y","Y","Y","N","MedDRA version 8.0 (partially masked by request of MSSO)","N","N","N","N","N","N","HLGT_0503","HLT_0560","INCONTINENCE",1/12/2013 0:00:00 AM,59,11/15/2012 0:00:00 AM
"01-701-1211",5,"CDISCPILOT01","ADAE","701","1211","VERBATIM_0995","APPLICATION SITE ERYTHEMA","GENERAL DISORDERS AND ADMINISTRATION SITE CONDITIONS","MILD","N",0,"POSSIBLE",,"Y","Y",,,1,,,,1,11/29/2012 0:00:00 AM,,15,15,,,"Xanomeline Low Dose","Xan_Lo",1,76,"65-80",2,"CAUCASIAN",1,"F","Y","Y","Y","N","MedDRA version 8.0 (partially masked by request of MSSO)","N","N","N","N","N","N","HLGT_0152","HLT_0617","APPLICATION SITE REDNESS",1/12/2013 0:00:00 AM,59,11/15/2012 0:00:00 AM
"01-701-1211",6,"CDISCPILOT01","ADAE","701","1211","VERBATIM_0548","SKIN LACERATION","INJURY, POISONING AND PROCEDURAL COMPLICATIONS","MILD","N",0,"NONE",,"Y","Y",,,1,,,,,12/9/2012 0:00:00 AM,,25,25,,,"Xanomeline Low Dose","Xan_Lo",1,76,"65-80",2,"CAUCASIAN",1,"F","Y","Y","Y","N","MedDRA version 8.0 (partially masked by request of MSSO)","N","N","N","N","N","N","HLGT_0118","HLT_0075","LACERATION OF FACE",1/12/2013 0:00:00 AM,59,11/15/2012 0:00:00 AM
"01-701-1211",7,"CDISCPILOT01","ADAE","701","1211","VERBATIM_1524","CONFUSIONAL STATE","PSYCHIATRIC DISORDERS","MODERATE","N",0,"NONE",,"Y","Y",,1,1,,,,,1/11/2013 0:00:00 AM,,58,58,,,"Xanomeline Low Dose","Xan_Lo",1,76,"65-80",2,"CAUCASIAN",1,"F","Y","Y","Y","N","MedDRA version 8.0 (partially masked by request of MSSO)","N","N","N","N","N","N","HLGT_0329","HLT_0642","CONFUSION",1/12/2013 0:00:00 AM,59,11/15/2012 0:00:00 AM
"01-701-1211",8,"CDISCPILOT01","ADAE","701","1211","VERBATIM_1509","DYSPNOEA","RESPIRATORY, THORACIC AND MEDIASTINAL DISORDERS","MODERATE","N",0,"NONE",,"Y","Y",,1,1,,,,,1/11/2013 0:00:00 AM,,58,58,,,"Xanomeline Low Dose","Xan_Lo",1,76,"65-80",2,"CAUCASIAN",1,"F","Y","Y","Y","N","MedDRA version 8.0 (partially masked by request of MSSO)","N","N","N","N","N","N","HLGT_0255","HLT_0296","SHORTNESS OF BREATH",1/12/2013 0:00:00 AM,59,11/15/2012 0:00:00 AM
"01-701-1211",9,"CDISCPILOT01","ADAE","701","1211","VERBATIM_0484","SUDDEN DEATH","GENERAL DISORDERS AND ADMINISTRATION SITE CONDITIONS","SEVERE","N",0,"NONE",,"N","Y",,,1,,,,,1/14/2013 0:00:00 AM,,61,61,1/14/2013 0:00:00 AM,61,"Xanomeline Low Dose","Xan_Lo",1,76,"65-80",2,"CAUCASIAN",1,"F","Y","Y","Y","N","MedDRA version 8.0 (partially masked by request of MSSO)","N","N","N","Y","N","Y","HLGT_0272","HLT_0142","SUDDEN DEATH",1/12/2013 0:00:00 AM,59,11/15/2012 0:00:00 AM
"01-701-1239",1,"CDISCPILOT01","ADAE","701","1239","VERBATIM_0300","ERYTHEMA","SKIN AND SUBCUTANEOUS TISSUE DISORDERS","MILD","N",0,"POSSIBLE",,"Y","Y",1,1,1,,,,1,1/12/2014 0:00:00 AM,,2,2,,,"Xanomeline High Dose","Xan_Hi",2,56,"<65",1,"HISPANIC (MEXICAN - AMERICAN, MEXICO, CENTRAL AND SOUTH AMERICA)",5,"M","Y","Y","Y","Y","MedDRA version 8.0 (partially masked by request of MSSO)","N","N","N","N","N","N","HLGT_0192","HLT_0284","ERYTHEMA",7/10/2014 0:00:00 AM,181,1/11/2014 0:00:00 AM
"01-701-1239",2,"CDISCPILOT01","ADAE","701","1239","VERBATIM_0385","SKIN ODOUR ABNORMAL","SKIN AND SUBCUTANEOUS TISSUE DISORDERS","MILD","N",0,"REMOTE",,"Y","Y",,,1,,,,1,1/12/2014 0:00:00 AM,,2,2,,,"Xanomeline High Dose","Xan_Hi",2,56,"<65",1,"HISPANIC (MEXICAN - AMERICAN, MEXICO, CENTRAL AND SOUTH AMERICA)",5,"M","Y","Y","Y","Y","MedDRA version 8.0 (partially masked by request of MSSO)","N","N","N","N","N","N","HLGT_0184","HLT_0510","SKIN ODOR ABNORMAL",7/10/2014 0:00:00 AM,181,1/11/2014 0:00:00 AM
"01-701-1239",3,"CDISCPILOT01","ADAE","701","1239","VERBATIM_0216","PRURITUS","SKIN AND SUBCUTANEOUS TISSUE DISORDERS","MILD","N",0,"POSSIBLE",,"Y","Y",,,1,,,,1,1/13/2014 0:00:00 AM,,3,3,,,"Xanomeline High Dose","Xan_Hi",2,56,"<65",1,"HISPANIC (MEXICAN - AMERICAN, MEXICO, CENTRAL AND SOUTH AMERICA)",5,"M","Y","Y","Y","Y","MedDRA version 8.0 (partially masked by request of MSSO)","N","N","N","N","N","N","HLGT_0695","HLT_0778","ITCHING",7/10/2014 0:00:00 AM,181,1/11/2014 0:00:00 AM
"01-701-1239",4,"CDISCPILOT01","ADAE","701","1239","VERBATIM_1231","APPLICATION SITE IRRITATION","GENERAL DISORDERS AND ADMINISTRATION SITE CONDITIONS","MILD","N",0,"PROBABLE",,"Y","Y",,1,1,,,,1,1/20/2014 0:00:00 AM,,10,10,2/8/2014 0:00:00 AM,29,"Xanomeline High Dose","Xan_Hi",2,56,"<65",1,"HISPANIC (MEXICAN - AMERICAN, MEXICO, CENTRAL AND SOUTH AMERICA)",5,"M","Y","Y","Y","Y","MedDRA version 8.0 (partially masked by request of MSSO)","N","N","N","N","N","N","HLGT_0346","HLT_0061","APPLICATION SITE IRRITATION",7/10/2014 0:00:00 AM,181,1/11/2014 0:00:00 AM
"01-701-1239",5,"CDISCPILOT01","ADAE","701","1239","VERBATIM_1231","APPLICATION SITE IRRITATION","GENERAL DISORDERS AND ADMINISTRATION SITE CONDITIONS","MILD","N",0,"PROBABLE",,"Y","Y",,,,,,,1,1/20/2014 0:00:00 AM,,10,10,2/8/2014 0:00:00 AM,29,"Xanomeline High Dose","Xan_Hi",2,56,"<65",1,"HISPANIC (MEXICAN - AMERICAN, MEXICO, CENTRAL AND SOUTH AMERICA)",5,"M","Y","Y","Y","Y","MedDRA version 8.0 (partially masked by request of MSSO)","N","N","N","N","N","N","HLGT_0346","HLT_0061","APPLICATION SITE IRRITATION",7/10/2014 0:00:00 AM,181,1/11/2014 0:00:00 AM
"01-701-1239",6,"CDISCPILOT01","ADAE","701","1239","VERBATIM_0300","ERYTHEMA","SKIN AND SUBCUTANEOUS TISSUE DISORDERS","MODERATE","N",0,"POSSIBLE",,"Y","Y",,,,,,,1,1/12/2014 0:00:00 AM,,2,2,,,"Xanomeline High Dose","Xan_Hi",2,56,"<65",1,"HISPANIC (MEXICAN - AMERICAN, MEXICO, CENTRAL AND SOUTH AMERICA)",5,"M","Y","Y","Y","Y","MedDRA version 8.0 (partially masked by request of MSSO)","N","N","N","N","N","N","HLGT_0192","HLT_0284","ERYTHEMA",7/10/2014 0:00:00 AM,181,1/11/2014 0:00:00 AM
"01-701-1239",7,"CDISCPILOT01","ADAE","701","1239","VERBATIM_0579","UPPER RESPIRATORY TRACT INFECTION","INFECTIONS AND INFESTATIONS","MILD","N",0,"NONE",,"Y","Y",,1,1,,,,,2/20/2014 0:00:00 AM,,41,41,3/12/2014 0:00:00 AM,61,"Xanomeline High Dose","Xan_Hi",2,56,"<65",1,"HISPANIC (MEXICAN - AMERICAN, MEXICO, CENTRAL AND SOUTH AMERICA)",5,"M","Y","Y","Y","Y","MedDRA version 8.0 (partially masked by request of MSSO)","N","N","N","N","N","N","HLGT_0489","HLT_0520","UPPER RESPIRATORY INFECTION",7/10/2014 0:00:00 AM,181,1/11/2014 0:00:00 AM
"01-701-1239",8,"CDISCPILOT01","ADAE","701","1239","VERBATIM_0579","UPPER RESPIRATORY TRACT INFECTION","INFECTIONS AND INFESTATIONS","MILD","N",0,"NONE",,"Y","Y",,,,,,,,2/20/2014 0:00:00 AM,,41,41,3/12/2014 0:00:00 AM,61,"Xanomeline High Dose","Xan_Hi",2,56,"<65",1,"HISPANIC (MEXICAN - AMERICAN, MEXICO, CENTRAL AND SOUTH AMERICA)",5,"M","Y","Y","Y","Y","MedDRA version 8.0 (partially masked by request of MSSO)","N","N","N","N","N","N","HLGT_0489","HLT_0520","UPPER RESPIRATORY INFECTION",7/10/2014 0:00:00 AM,181,1/11/2014 0:00:00 AM
"01-701-1239",9,"CDISCPILOT01","ADAE","701","1239","VERBATIM_0555","FATIGUE","GENERAL DISORDERS AND ADMINISTRATION SITE CONDITIONS","MILD","N",0,"REMOTE",,"Y","Y",,,1,,,,,3/1/2014 0:00:00 AM,"D",50,50,,,"Xanomeline High Dose","Xan_Hi",2,56,"<65",1,"HISPANIC (MEXICAN - AMERICAN, MEXICO, CENTRAL AND SOUTH AMERICA)",5,"M","Y","Y","Y","Y","MedDRA version 8.0 (partially masked by request of MSSO)","N","N","N","N","N","N","HLGT_0181","HLT_0043","FATIGUE",7/10/2014 0:00:00 AM,181,1/11/2014 0:00:00 AM
"01-701-1239",10,"CDISCPILOT01","ADAE","701","1239","VERBATIM_1306","HORDEOLUM","INFECTIONS AND INFESTATIONS","MILD","N",0,"NONE",,"Y","Y",,,1,,,,,4/1/2014 0:00:00 AM,"D",81,81,,,"Xanomeline High Dose","Xan_Hi",2,56,"<65",1,"HISPANIC (MEXICAN - AMERICAN, MEXICO, CENTRAL AND SOUTH AMERICA)",5,"M","Y","Y","Y","Y","MedDRA version 8.0 (partially masked by request of MSSO)","N","N","N","N","N","N","HLGT_0290","HLT_0604","STYE",7/10/2014 0:00:00 AM,181,1/11/2014 0:00:00 AM
"01-701-1275",1,"CDISCPILOT01","ADAE","701","1275","VERBATIM_0775","NAUSEA","GASTROINTESTINAL DISORDERS","MILD","N",0,"POSSIBLE",,"Y","Y",1,1,1,,,,,2/13/2014 0:00:00 AM,,7,7,6/3/2014 0:00:00 AM,117,"Xanomeline High Dose","Xan_Hi",2,61,"<65",1,"OTHER (MIXED - RACIAL HERITAGE, AMERICAN INDIAN, ESKIMO)",6,"M","Y","Y","Y","N","MedDRA version 8.0 (partially masked by request of MSSO)","N","N","N","N","N","N","HLGT_0326","HLT_0742","NAUSEA",5/31/2014 0:00:00 AM,114,2/7/2014 0:00:00 AM
"01-701-1275",2,"CDISCPILOT01","ADAE","701","1275","VERBATIM_0897","VOMITING","GASTROINTESTINAL DISORDERS","MILD","N",0,"POSSIBLE",,"Y","Y",,,1,,,,,2/23/2014 0:00:00 AM,,17,17,2/23/2014 0:00:00 AM,17,"Xanomeline High Dose","Xan_Hi",2,61,"<65",1,"OTHER (MIXED - RACIAL HERITAGE, AMERICAN INDIAN, ESKIMO)",6,"M","Y","Y","Y","N","MedDRA version 8.0 (partially masked by request of MSSO)","N","N","N","N","N","N","HLGT_0350","HLT_0016","VOMITING",5/31/2014 0:00:00 AM,114,2/7/2014 0:00:00 AM
"01-701-1275",3,"CDISCPILOT01","ADAE","701","1275","VERBATIM_0300","ERYTHEMA","SKIN AND SUBCUTANEOUS TISSUE DISORDERS","MILD","N",0,"POSSIBLE",,"Y","Y",,1,1,,,,1,2/24/2014 0:00:00 AM,,18,18,6/12/2014 0:00:00 AM,126,"Xanomeline High Dose","Xan_Hi",2,61,"<65",1,"OTHER (MIXED - RACIAL HERITAGE, AMERICAN INDIAN, ESKIMO)",6,"M","Y","Y","Y","N","MedDRA version 8.0 (partially masked by request of MSSO)","N","N","N","N","N","N","HLGT_0192","HLT_0284","ERYTHEMA",5/31/2014 0:00:00 AM,114,2/7/2014 0:00:00 AM
"01-701-1275",4,"CDISCPILOT01","ADAE","701","1275","VERBATIM_1572","SALIVARY HYPERSECRETION","GASTROINTESTINAL DISORDERS","MILD","N",0,"POSSIBLE",,"Y","Y",,,1,,,,,2/24/2014 0:00:00 AM,,18,18,6/3/2014 0:00:00 AM,117,"Xanomeline High Dose","Xan_Hi",2,61,"<65",1,"OTHER (MIXED - RACIAL HERITAGE, AMERICAN INDIAN, ESKIMO)",6,"M","Y","Y","Y","N","MedDRA version 8.0 (partially masked by request of MSSO)","N","N","N","N","N","N","HLGT_0488","HLT_0374","HYPERSALIVATION",5/31/2014 0:00:00 AM,114,2/7/2014 0:00:00 AM
"01-701-1275",5,"CDISCPILOT01","ADAE","701","1275","VERBATIM_0923","PAROSMIA","NERVOUS SYSTEM DISORDERS","MILD","N",0,"POSSIBLE",,"Y","Y",,1,1,,,,,2/24/2014 0:00:00 AM,,18,18,6/3/2014 0:00:00 AM,117,"Xanomeline High Dose","Xan_Hi",2,61,"<65",1,"OTHER (MIXED - RACIAL HERITAGE, AMERICAN INDIAN, ESKIMO)",6,"M","Y","Y","Y","N","MedDRA version 8.0 (partially masked by request of MSSO)","N","N","N","N","N","N","HLGT_0471","HLT_0258","STRANGE SMELL SENSATION",5/31/2014 0:00:00 AM,114,2/7/2014 0:00:00 AM
"01-701-1275",6,"CDISCPILOT01","ADAE","701","1275","VERBATIM_0216","PRURITUS","SKIN AND SUBCUTANEOUS TISSUE DISORDERS","MILD","N",0,"POSSIBLE",,"Y","Y",,,1,,,,1,2/24/2014 0:00:00 AM,,18,18,6/12/2014 0:00:00 AM,126,"Xanomeline High Dose","Xan_Hi",2,61,"<65",1,"OTHER (MIXED - RACIAL HERITAGE, AMERICAN INDIAN, ESKIMO)",6,"M","Y","Y","Y","N","MedDRA version 8.0 (partially masked by request of MSSO)","N","N","N","N","N","N","HLGT_0695","HLT_0778","ITCHING",5/31/2014 0:00:00 AM,114,2/7/2014 0:00:00 AM
"01-701-1275",7,"CDISCPILOT01","ADAE","701","1275","VERBATIM_0910","COUGH","RESPIRATORY, THORACIC AND MEDIASTINAL DISORDERS","MILD","N",0,"NONE",,"Y","Y",,1,1,,,,,3/12/2014 0:00:00 AM,,34,34,3/27/2014 0:00:00 AM,49,"Xanomeline High Dose","Xan_Hi",2,61,"<65",1,"OTHER (MIXED - RACIAL HERITAGE, AMERICAN INDIAN, ESKIMO)",6,"M","Y","Y","Y","N","MedDRA version 8.0 (partially masked by request of MSSO)","N","N","N","N","N","N","HLGT_0280","HLT_0701","COUGH",5/31/2014 0:00:00 AM,114,2/7/2014 0:00:00 AM
"01-701-1275",8,"CDISCPILOT01","ADAE","701","1275","VERBATIM_1612","NASAL CONGESTION","RESPIRATORY, THORACIC AND MEDIASTINAL DISORDERS","MILD","N",0,"NONE",,"Y","Y",,,1,,,,,3/12/2014 0:00:00 AM,,34,34,3/27/2014 0:00:00 AM,49,"Xanomeline High Dose","Xan_Hi",2,61,"<65",1,"OTHER (MIXED - RACIAL HERITAGE, AMERICAN INDIAN, ESKIMO)",6,"M","Y","Y","Y","N","MedDRA version 8.0 (partially masked by request of MSSO)","N","N","N","N","N","N","HLGT_0549","HLT_0118","NASAL CONGESTION",5/31/2014 0:00:00 AM,114,2/7/2014 0:00:00 AM
"01-701-1275",9,"CDISCPILOT01","ADAE","701","1275","VERBATIM_0910","COUGH","RESPIRATORY, THORACIC AND MEDIASTINAL DISORDERS","MILD","N",0,"NONE",,"Y","Y",,,,,,,,3/12/2014 0:00:00 AM,,34,34,3/27/2014 0:00:00 AM,49,"Xanomeline High Dose","Xan_Hi",2,61,"<65",1,"OTHER (MIXED - RACIAL HERITAGE, AMERICAN INDIAN, ESKIMO)",6,"M","Y","Y","Y","N","MedDRA version 8.0 (partially masked by request of MSSO)","N","N","N","N","N","N","HLGT_0280","HLT_0701","COUGH",5/31/2014 0:00:00 AM,114,2/7/2014 0:00:00 AM
"01-701-1275",10,"CDISCPILOT01","ADAE","701","1275","VERBATIM_1612","NASAL CONGESTION","RESPIRATORY, THORACIC AND MEDIASTINAL DISORDERS","MILD","N",0,"NONE",,"Y","Y",,,,,,,,3/12/2014 0:00:00 AM,,34,34,3/27/2014 0:00:00 AM,49,"Xanomeline High Dose","Xan_Hi",2,61,"<65",1,"OTHER (MIXED - RACIAL HERITAGE, AMERICAN INDIAN, ESKIMO)",6,"M","Y","Y","Y","N","MedDRA version 8.0 (partially masked by request of MSSO)","N","N","N","N","N","N","HLGT_0549","HLT_0118","NASAL CONGESTION",5/31/2014 0:00:00 AM,114,2/7/2014 0:00:00 AM
"01-701-1275",11,"CDISCPILOT01","ADAE","701","1275","VERBATIM_0775","NAUSEA","GASTROINTESTINAL DISORDERS","MILD","N",0,"POSSIBLE",,"Y","Y",,,,,,,,2/13/2014 0:00:00 AM,,7,7,6/3/2014 0:00:00 AM,117,"Xanomeline High Dose","Xan_Hi",2,61,"<65",1,"OTHER (MIXED - RACIAL HERITAGE, AMERICAN INDIAN, ESKIMO)",6,"M","Y","Y","Y","N","MedDRA version 8.0 (partially masked by request of MSSO)","N","N","N","N","N","N","HLGT_0326","HLT_0742","NAUSEA",5/31/2014 0:00:00 AM,114,2/7/2014 0:00:00 AM
"01-701-1275",12,"CDISCPILOT01","ADAE","701","1275","VERBATIM_0300","ERYTHEMA","SKIN AND SUBCUTANEOUS TISSUE DISORDERS","MILD","N",0,"POSSIBLE",,"Y","Y",,,,,,,1,2/24/2014 0:00:00 AM,,18,18,6/12/2014 0:00:00 AM,126,"Xanomeline High Dose","Xan_Hi",2,61,"<65",1,"OTHER (MIXED - RACIAL HERITAGE, AMERICAN INDIAN, ESKIMO)",6,"M","Y","Y","Y","N","MedDRA version 8.0 (partially masked by request of MSSO)","N","N","N","N","N","N","HLGT_0192","HLT_0284","ERYTHEMA",5/31/2014 0:00:00 AM,114,2/7/2014 0:00:00 AM
"01-701-1275",13,"CDISCPILOT01","ADAE","701","1275","VERBATIM_1572","SALIVARY HYPERSECRETION","GASTROINTESTINAL DISORDERS","MILD","N",0,"POSSIBLE",,"Y","Y",,,,,,,,2/24/2014 0:00:00 AM,,18,18,6/3/2014 0:00:00 AM,117,"Xanomeline High Dose","Xan_Hi",2,61,"<65",1,"OTHER (MIXED - RACIAL HERITAGE, AMERICAN INDIAN, ESKIMO)",6,"M","Y","Y","Y","N","MedDRA version 8.0 (partially masked by request of MSSO)","N","N","N","N","N","N","HLGT_0488","HLT_0374","HYPERSALIVATION",5/31/2014 0:00:00 AM,114,2/7/2014 0:00:00 AM
"01-701-1275",14,"CDISCPILOT01","ADAE","701","1275","VERBATIM_0923","PAROSMIA","NERVOUS SYSTEM DISORDERS","MILD","N",0,"POSSIBLE",,"Y","Y",,,,,,,,2/24/2014 0:00:00 AM,,18,18,6/3/2014 0:00:00 AM,117,"Xanomeline High Dose","Xan_Hi",2,61,"<65",1,"OTHER (MIXED - RACIAL HERITAGE, AMERICAN INDIAN, ESKIMO)",6,"M","Y","Y","Y","N","MedDRA version 8.0 (partially masked by request of MSSO)","N","N","N","N","N","N","HLGT_0471","HLT_0258","STRANGE SMELL SENSATION",5/31/2014 0:00:00 AM,114,2/7/2014 0:00:00 AM
"01-701-1275",15,"CDISCPILOT01","ADAE","701","1275","VERBATIM_0216","PRURITUS","SKIN AND SUBCUTANEOUS TISSUE DISORDERS","MILD","N",0,"POSSIBLE",,"Y","Y",,,,,,,1,2/24/2014 0:00:00 AM,,18,18,6/12/2014 0:00:00 AM,126,"Xanomeline High Dose","Xan_Hi",2,61,"<65",1,"OTHER (MIXED - RACIAL HERITAGE, AMERICAN INDIAN, ESKIMO)",6,"M","Y","Y","Y","N","MedDRA version 8.0 (partially masked by request of MSSO)","N","N","N","N","N","N","HLGT_0695","HLT_0778","ITCHING",5/31/2014 0:00:00 AM,114,2/7/2014 0:00:00 AM
"01-701-1287",1,"CDISCPILOT01","ADAE","701","1287","VERBATIM_1433","SALIVARY HYPERSECRETION","GASTROINTESTINAL DISORDERS","MILD","N",0,"NONE",,"Y","Y",1,1,1,,,,,1/26/2014 0:00:00 AM,,2,2,,,"Xanomeline High Dose","Xan_Hi",2,56,"<65",1,"HISPANIC (MEXICAN - AMERICAN, MEXICO, CENTRAL AND SOUTH AMERICA)",5,"F","Y","Y","Y","Y","MedDRA version 8.0 (partially masked by request of MSSO)","N","N","N","N","N","N","HLGT_0488","HLT_0374","INCREASED SALIVATION",7/26/2014 0:00:00 AM,183,1/25/2014 0:00:00 AM
"01-701-1287",2,"CDISCPILOT01","ADAE","701","1287","VERBATIM_0445","APPLICATION SITE PRURITUS","GENERAL DISORDERS AND ADMINISTRATION SITE CONDITIONS","MILD","N",0,"POSSIBLE",,"Y","Y",,1,1,,,,1,2/22/2014 0:00:00 AM,,29,29,,,"Xanomeline High Dose","Xan_Hi",2,56,"<65",1,"HISPANIC (MEXICAN - AMERICAN, MEXICO, CENTRAL AND SOUTH AMERICA)",5,"F","Y","Y","Y","Y","MedDRA version 8.0 (partially masked by request of MSSO)","N","N","N","N","N","N","HLGT_0338","HLT_0317","APPLICATION SITE ITCHING",7/26/2014 0:00:00 AM,183,1/25/2014 0:00:00 AM
"01-701-1287",3,"CDISCPILOT01","ADAE","701","1287","VERBATIM_0716","APPLICATION SITE ERYTHEMA","GENERAL DISORDERS AND ADMINISTRATION SITE CONDITIONS","MILD","N",0,"PROBABLE",,"Y","Y",,,1,,,,1,3/9/2014 0:00:00 AM,,44,44,,,"Xanomeline High Dose","Xan_Hi",2,56,"<65",1,"HISPANIC (MEXICAN - AMERICAN, MEXICO, CENTRAL AND SOUTH AMERICA)",5,"F","Y","Y","Y","Y","MedDRA version 8.0 (partially masked by request of MSSO)","N","N","N","N","N","N","HLGT_0152","HLT_0617","APPLICATION SITE REDNESS",7/26/2014 0:00:00 AM,183,1/25/2014 0:00:00 AM
"01-701-1287",4,"CDISCPILOT01","ADAE","701","1287","VERBATIM_1075","RHINORRHOEA","RESPIRATORY, THORACIC AND MEDIASTINAL DISORDERS","MILD","N",0,"NONE",,"Y","Y",,1,1,,,,,7/9/2014 0:00:00 AM,,166,166,7/12/2014 0:00:00 AM,169,"Xanomeline High Dose","Xan_Hi",2,56,"<65",1,"HISPANIC (MEXICAN - AMERICAN, MEXICO, CENTRAL AND SOUTH AMERICA)",5,"F","Y","Y","Y","Y","MedDRA version 8.0 (partially masked by request of MSSO)","N","N","N","N","N","N","HLGT_0460","HLT_0635","RUNNY NOSE",7/26/2014 0:00:00 AM,183,1/25/2014 0:00:00 AM
"01-701-1287",5,"CDISCPILOT01","ADAE","701","1287","VERBATIM_1075","RHINORRHOEA","RESPIRATORY, THORACIC AND MEDIASTINAL DISORDERS","MILD","N",0,"NONE",,"Y","Y",,,,,,,,7/9/2014 0:00:00 AM,,166,166,7/12/2014 0:00:00 AM,169,"Xanomeline High Dose","Xan_Hi",2,56,"<65",1,"HISPANIC (MEXICAN - AMERICAN, MEXICO, CENTRAL AND SOUTH AMERICA)",5,"F","Y","Y","Y","Y","MedDRA version 8.0 (partially masked by request of MSSO)","N","N","N","N","N","N","HLGT_0460","HLT_0635","RUNNY NOSE",7/26/2014 0:00:00 AM,183,1/25/2014 0:00:00 AM
"01-701-1294",1,"CDISCPILOT01","ADAE","701","1294","VERBATIM_0578","APPLICATION SITE PRURITUS","GENERAL DISORDERS AND ADMINISTRATION SITE CONDITIONS","MODERATE","N",0,"NONE","Y","N","N",,,,,,,1,3/22/2013 0:00:00 AM,,-2,-1,3/23/2013 0:00:00 AM,-1,"Xanomeline Low Dose","Xan_Lo",1,67,"65-80",2,"CAUCASIAN",1,"M","Y","Y","Y","N","MedDRA version 8.0 (partially masked by request of MSSO)","N","N","N","N","N","N","HLGT_0338","HLT_0317","APPLICATION SITE ITCHING",6/14/2013 0:00:00 AM,83,3/24/2013 0:00:00 AM
"01-701-1294",2,"CDISCPILOT01","ADAE","701","1294","VERBATIM_1219","APPLICATION SITE PRURITUS","GENERAL DISORDERS AND ADMINISTRATION SITE CONDITIONS","MILD","N",0,"POSSIBLE","Y","Y","Y",1,1,1,,,,1,5/19/2013 0:00:00 AM,,57,57,,,"Xanomeline Low Dose","Xan_Lo",1,67,"65-80",2,"CAUCASIAN",1,"M","Y","Y","Y","N","MedDRA version 8.0 (partially masked by request of MSSO)","N","N","N","N","N","N","HLGT_0338","HLT_0317","APPLICATION SITE ITCHING",6/14/2013 0:00:00 AM,83,3/24/2013 0:00:00 AM
"01-701-1294",3,"CDISCPILOT01","ADAE","701","1294","VERBATIM_0716","APPLICATION SITE ERYTHEMA","GENERAL DISORDERS AND ADMINISTRATION SITE CONDITIONS","MILD","N",0,"PROBABLE","Y","Y","Y",,,1,,,,1,5/19/2013 0:00:00 AM,,57,57,,,"Xanomeline Low Dose","Xan_Lo",1,67,"65-80",2,"CAUCASIAN",1,"M","Y","Y","Y","N","MedDRA version 8.0 (partially masked by request of MSSO)","N","N","N","N","N","N","HLGT_0152","HLT_0617","APPLICATION SITE REDNESS",6/14/2013 0:00:00 AM,83,3/24/2013 0:00:00 AM
"01-701-1294",4,"CDISCPILOT01","ADAE","701","1294","VERBATIM_1219","APPLICATION SITE PRURITUS","GENERAL DISORDERS AND ADMINISTRATION SITE CONDITIONS","MODERATE","N",0,"POSSIBLE","Y","Y","Y",,,,,,,1,5/19/2013 0:00:00 AM,,57,57,,,"Xanomeline Low Dose","Xan_Lo",1,67,"65-80",2,"CAUCASIAN",1,"M","Y","Y","Y","N","MedDRA version 8.0 (partially masked by request of MSSO)","N","N","N","N","N","N","HLGT_0338","HLT_0317","APPLICATION SITE ITCHING",6/14/2013 0:00:00 AM,83,3/24/2013 0:00:00 AM
"01-701-1294",5,"CDISCPILOT01","ADAE","701","1294","VERBATIM_0716","APPLICATION SITE ERYTHEMA","GENERAL DISORDERS AND ADMINISTRATION SITE CONDITIONS","MODERATE","N",0,"PROBABLE","Y","Y","Y",,,,,,,1,5/19/2013 0:00:00 AM,,57,57,,,"Xanomeline Low Dose","Xan_Lo",1,67,"65-80",2,"CAUCASIAN",1,"M","Y","Y","Y","N","MedDRA version 8.0 (partially masked by request of MSSO)","N","N","N","N","N","N","HLGT_0152","HLT_0617","APPLICATION SITE REDNESS",6/14/2013 0:00:00 AM,83,3/24/2013 0:00:00 AM
"01-701-1294",6,"CDISCPILOT01","ADAE","701","1294","VERBATIM_1620","RASH ERYTHEMATOUS","SKIN AND SUBCUTANEOUS TISSUE DISORDERS","MODERATE","N",0,"PROBABLE","Y","Y","Y",,1,1,,,,1,6/10/2013 0:00:00 AM,,79,79,,,"Xanomeline Low Dose","Xan_Lo",1,67,"65-80",2,"CAUCASIAN",1,"M","Y","Y","Y","N","MedDRA version 8.0 (partially masked by request of MSSO)","N","N","N","N","N","N","HLGT_0701","HLT_0336","ERYTHEMATOUS RASH",6/14/2013 0:00:00 AM,83,3/24/2013 0:00:00 AM
"01-701-1302",1,"CDISCPILOT01","ADAE","701","1302","VERBATIM_0038","APPLICATION SITE PERSPIRATION","GENERAL DISORDERS AND ADMINISTRATION SITE CONDITIONS","MILD","N",0,"POSSIBLE","Y","Y","Y",1,1,1,,,,1,8/30/2013 0:00:00 AM,,2,2,,,"Xanomeline High Dose","Xan_Hi",2,61,"<65",1,"CAUCASIAN",1,"M","Y","Y","Y","N","MedDRA version 8.0 (partially masked by request of MSSO)","N","N","N","N","N","N","HLGT_0403","HLT_0283","APPLICATION SITE PERSPIRATION",11/5/2013 0:00:00 AM,69,8/29/2013 0:00:00 AM
"01-701-1302",2,"CDISCPILOT01","ADAE","701","1302","VERBATIM_0551","HYPERHIDROSIS","SKIN AND SUBCUTANEOUS TISSUE DISORDERS","MILD","N",0,"POSSIBLE","Y","Y","Y",,1,1,,,,,8/30/2013 0:00:00 AM,,2,2,,,"Xanomeline High Dose","Xan_Hi",2,61,"<65",1,"CAUCASIAN",1,"M","Y","Y","Y","N","MedDRA version 8.0 (partially masked by request of MSSO)","N","N","N","N","N","N","HLGT_0005","HLT_0587","PERSPIRATION EXCESSIVE",11/5/2013 0:00:00 AM,69,8/29/2013 0:00:00 AM
"01-701-1302",3,"CDISCPILOT01","ADAE","701","1302","VERBATIM_0350","STOMACH DISCOMFORT","GASTROINTESTINAL DISORDERS","MILD","N",0,"POSSIBLE","Y","Y","Y",,1,1,,,,,8/30/2013 0:00:00 AM,,2,2,,,"Xanomeline High Dose","Xan_Hi",2,61,"<65",1,"CAUCASIAN",1,"M","Y","Y","Y","N","MedDRA version 8.0 (partially masked by request of MSSO)","N","N","N","N","N","N","HLGT_0183","HLT_0065","STOMACH UPSET",11/5/2013 0:00:00 AM,69,8/29/2013 0:00:00 AM
"01-701-1302",4,"CDISCPILOT01","ADAE","701","1302","VERBATIM_1314","PAIN","GENERAL DISORDERS AND ADMINISTRATION SITE CONDITIONS","MILD","N",0,"POSSIBLE","Y","Y","Y",,,1,,,,,8/31/2013 0:00:00 AM,,3,3,,,"Xanomeline High Dose","Xan_Hi",2,61,"<65",1,"CAUCASIAN",1,"M","Y","Y","Y","N","MedDRA version 8.0 (partially masked by request of MSSO)","N","N","N","N","N","N","HLGT_0478","HLT_0314","STINGING",11/5/2013 0:00:00 AM,69,8/29/2013 0:00:00 AM
"01-701-1302",5,"CDISCPILOT01","ADAE","701","1302","VERBATIM_1612","NASAL CONGESTION","RESPIRATORY, THORACIC AND MEDIASTINAL DISORDERS","MILD","N",0,"NONE","Y","Y","Y",,1,1,,,,,9/1/2013 0:00:00 AM,,4,4,,,"Xanomeline High Dose","Xan_Hi",2,61,"<65",1,"CAUCASIAN",1,"M","Y","Y","Y","N","MedDRA version 8.0 (partially masked by request of MSSO)","N","N","N","N","N","N","HLGT_0549","HLT_0118","NASAL CONGESTION",11/5/2013 0:00:00 AM,69,8/29/2013 0:00:00 AM
"01-701-1302",6,"CDISCPILOT01","ADAE","701","1302","VERBATIM_1230","PHARYNGOLARYNGEAL PAIN","RESPIRATORY, THORACIC AND MEDIASTINAL DISORDERS","MILD","N",0,"NONE","Y","Y","Y",,,1,,,,,9/2/2013 0:00:00 AM,,5,5,,,"Xanomeline High Dose","Xan_Hi",2,61,"<65",1,"CAUCASIAN",1,"M","Y","Y","Y","N","MedDRA version 8.0 (partially masked by request of MSSO)","N","N","N","N","N","N","HLGT_0402","HLT_0130","SORE THROAT",11/5/2013 0:00:00 AM,69,8/29/2013 0:00:00 AM
"01-701-1302",7,"CDISCPILOT01","ADAE","701","1302","VERBATIM_0298","PRODUCTIVE COUGH","RESPIRATORY, THORACIC AND MEDIASTINAL DISORDERS","MILD","N",0,"NONE","Y","Y","Y",,,1,,,,,9/2/2013 0:00:00 AM,,5,5,,,"Xanomeline High Dose","Xan_Hi",2,61,"<65",1,"CAUCASIAN",1,"M","Y","Y","Y","N","MedDRA version 8.0 (partially masked by request of MSSO)","N","N","N","N","N","N","HLGT_0681","HLT_0545","PRODUCTIVE COUGH",11/5/2013 0:00:00 AM,69,8/29/2013 0:00:00 AM
"01-701-1302",8,"CDISCPILOT01","ADAE","701","1302","VERBATIM_0734","MALAISE","GENERAL DISORDERS AND ADMINISTRATION SITE CONDITIONS","MILD","N",0,"REMOTE","Y","Y","Y",,,1,,,,,9/2/2013 0:00:00 AM,,5,5,,,"Xanomeline High Dose","Xan_Hi",2,61,"<65",1,"CAUCASIAN",1,"M","Y","Y","Y","N","MedDRA version 8.0 (partially masked by request of MSSO)","N","N","N","N","N","N","HLGT_0178","HLT_0456","MALAISE",11/5/2013 0:00:00 AM,69,8/29/2013 0:00:00 AM
"01-701-1302",9,"CDISCPILOT01","ADAE","701","1302","VERBATIM_0327","DIZZINESS","NERVOUS SYSTEM DISORDERS","MODERATE","N",0,"REMOTE","Y","Y","Y",,1,1,,,,,9/2/2013 0:00:00 AM,,5,5,9/3/2013 0:00:00 AM,6,"Xanomeline High Dose","Xan_Hi",2,61,"<65",1,"CAUCASIAN",1,"M","Y","Y","Y","N","MedDRA version 8.0 (partially masked by request of MSSO)","N","N","N","N","N","N","HLGT_0751","HLT_0619","DIZZY",11/5/2013 0:00:00 AM,69,8/29/2013 0:00:00 AM
"01-701-1302",10,"CDISCPILOT01","ADAE","701","1302","VERBATIM_0183","MYALGIA","MUSCULOSKELETAL AND CONNECTIVE TISSUE DISORDERS","MILD","N",0,"POSSIBLE","Y","Y","Y",,1,1,,,,,9/2/2013 0:00:00 AM,,5,5,,,"Xanomeline High Dose","Xan_Hi",2,61,"<65",1,"CAUCASIAN",1,"M","Y","Y","Y","N","MedDRA version 8.0 (partially masked by request of MSSO)","N","N","N","N","N","N","HLGT_0121","HLT_0700","MYALGIA",11/5/2013 0:00:00 AM,69,8/29/2013 0:00:00 AM
"01-701-1302",11,"CDISCPILOT01","ADAE","701","1302","VERBATIM_1049","DIZZINESS","NERVOUS SYSTEM DISORDERS","MILD","N",0,"POSSIBLE","Y","Y","Y",,,,,,,,9/4/2013 0:00:00 AM,,7,7,,,"Xanomeline High Dose","Xan_Hi",2,61,"<65",1,"CAUCASIAN",1,"M","Y","Y","Y","N","MedDRA version 8.0 (partially masked by request of MSSO)","N","N","N","N","N","N","HLGT_0751","HLT_0619","LIGHTHEADEDNESS",11/5/2013 0:00:00 AM,69,8/29/2013 0:00:00 AM
"01-701-1302",12,"CDISCPILOT01","ADAE","701","1302","VERBATIM_1465","CONTUSION","INJURY, POISONING AND PROCEDURAL COMPLICATIONS","MILD","N",0,"REMOTE","Y","Y","Y",,1,1,,,,,9/5/2013 0:00:00 AM,,8,8,10/8/2013 0:00:00 AM,41,"Xanomeline High Dose","Xan_Hi",2,61,"<65",1,"CAUCASIAN",1,"M","Y","Y","Y","N","MedDRA version 8.0 (partially masked by request of MSSO)","N","N","N","N","N","N","HLGT_0381","HLT_0713","BRUISE",11/5/2013 0:00:00 AM,69,8/29/2013 0:00:00 AM
"01-701-1302",13,"CDISCPILOT01","ADAE","701","1302","VERBATIM_0735","HEADACHE","NERVOUS SYSTEM DISORDERS","MILD","N",0,"NONE","Y","Y","Y",,,1,,,,,9/15/2013 0:00:00 AM,,18,18,,,"Xanomeline High Dose","Xan_Hi",2,61,"<65",1,"CAUCASIAN",1,"M","Y","Y","Y","N","MedDRA version 8.0 (partially masked by request of MSSO)","N","N","N","N","N","N","HLGT_0344","HLT_0064","HEADACHE",11/5/2013 0:00:00 AM,69,8/29/2013 0:00:00 AM
"01-701-1302",14,"CDISCPILOT01","ADAE","701","1302","VERBATIM_1199","EPISTAXIS","RESPIRATORY, THORACIC AND MEDIASTINAL DISORDERS","MILD","N",0,"REMOTE","Y","Y","Y",,,1,,,,,9/30/2013 0:00:00 AM,,33,33,,,"Xanomeline High Dose","Xan_Hi",2,61,"<65",1,"CAUCASIAN",1,"M","Y","Y","Y","N","MedDRA version 8.0 (partially masked by request of MSSO)","N","N","N","N","N","N","HLGT_0577","HLT_0386","NOSE BLEED",11/5/2013 0:00:00 AM,69,8/29/2013 0:00:00 AM
"01-701-1302",15,"CDISCPILOT01","ADAE","701","1302","VERBATIM_1465","CONTUSION","INJURY, POISONING AND PROCEDURAL COMPLICATIONS","MILD","N",0,"REMOTE","Y","Y","Y",,,,,,,,9/5/2013 0:00:00 AM,,8,8,10/8/2013 0:00:00 AM,41,"Xanomeline High Dose","Xan_Hi",2,61,"<65",1,"CAUCASIAN",1,"M","Y","Y","Y","N","MedDRA version 8.0 (partially masked by request of MSSO)","N","N","N","N","N","N","HLGT_0381","HLT_0713","BRUISE",11/5/2013 0:00:00 AM,69,8/29/2013 0:00:00 AM
"01-701-1302",16,"CDISCPILOT01","ADAE","701","1302","VERBATIM_1005","APPLICATION SITE ERYTHEMA","GENERAL DISORDERS AND ADMINISTRATION SITE CONDITIONS","MILD","N",0,"PROBABLE","Y","Y","Y",,,1,,,,1,10/15/2013 0:00:00 AM,,48,48,,,"Xanomeline High Dose","Xan_Hi",2,61,"<65",1,"CAUCASIAN",1,"M","Y","Y","Y","N","MedDRA version 8.0 (partially masked by request of MSSO)","N","N","N","N","N","N","HLGT_0152","HLT_0617","APPLICATION SITE REDNESS",11/5/2013 0:00:00 AM,69,8/29/2013 0:00:00 AM
"01-701-1302",17,"CDISCPILOT01","ADAE","701","1302","VERBATIM_1219","APPLICATION SITE PRURITUS","GENERAL DISORDERS AND ADMINISTRATION SITE CONDITIONS","MILD","N",0,"PROBABLE","Y","Y","Y",,,1,,,,1,10/15/2013 0:00:00 AM,,48,48,,,"Xanomeline High Dose","Xan_Hi",2,61,"<65",1,"CAUCASIAN",1,"M","Y","Y","Y","N","MedDRA version 8.0 (partially masked by request of MSSO)","N","N","N","N","N","N","HLGT_0338","HLT_0317","APPLICATION SITE ITCHING",11/5/2013 0:00:00 AM,69,8/29/2013 0:00:00 AM
"01-701-1302",18,"CDISCPILOT01","ADAE","701","1302","VERBATIM_0734","MALAISE","GENERAL DISORDERS AND ADMINISTRATION SITE CONDITIONS","MODERATE","N",0,"REMOTE","Y","Y","Y",,,,,,,,9/2/2013 0:00:00 AM,,5,5,,,"Xanomeline High Dose","Xan_Hi",2,61,"<65",1,"CAUCASIAN",1,"M","Y","Y","Y","N","MedDRA version 8.0 (partially masked by request of MSSO)","N","N","N","N","N","N","HLGT_0178","HLT_0456","MALAISE",11/5/2013 0:00:00 AM,69,8/29/2013 0:00:00 AM
"01-701-1302",19,"CDISCPILOT01","ADAE","701","1302","VERBATIM_1148","RESPIRATORY TRACT CONGESTION","RESPIRATORY, THORACIC AND MEDIASTINAL DISORDERS","MILD","N",0,"NONE","Y","Y","Y",,,1,,,,,10/23/2013 0:00:00 AM,,56,56,,,"Xanomeline High Dose","Xan_Hi",2,61,"<65",1,"CAUCASIAN",1,"M","Y","Y","Y","N","MedDRA version 8.0 (partially masked by request of MSSO)","N","N","N","N","N","N","HLGT_0424","HLT_0330","RESPIRATORY TRACT CONGESTION",11/5/2013 0:00:00 AM,69,8/29/2013 0:00:00 AM
"01-701-1302",20,"CDISCPILOT01","ADAE","701","1302","VERBATIM_0358","RHINITIS","INFECTIONS AND INFESTATIONS","MILD","N",0,"NONE","Y","Y","Y",,1,1,,,,,10/23/2013 0:00:00 AM,,56,56,,,"Xanomeline High Dose","Xan_Hi",2,61,"<65",1,"CAUCASIAN",1,"M","Y","Y","Y","N","MedDRA version 8.0 (partially masked by request of MSSO)","N","N","N","N","N","N","HLGT_0322","HLT_0239","CORYZA",11/5/2013 0:00:00 AM,69,8/29/2013 0:00:00 AM
"01-701-1302",21,"CDISCPILOT01","ADAE","701","1302","VERBATIM_0374","FEELING ABNORMAL","GENERAL DISORDERS AND ADMINISTRATION SITE CONDITIONS","MILD","N",0,"POSSIBLE","Y","Y","Y",,,1,,,,,10/24/2013 0:00:00 AM,,57,57,,,"Xanomeline High Dose","Xan_Hi",2,61,"<65",1,"CAUCASIAN",1,"M","Y","Y","Y","N","MedDRA version 8.0 (partially masked by request of MSSO)","N","N","N","N","N","N","HLGT_0749","HLT_0524","FOGGY FEELING IN HEAD",11/5/2013 0:00:00 AM,69,8/29/2013 0:00:00 AM
"01-701-1302",22,"CDISCPILOT01","ADAE","701","1302","VERBATIM_0482","LISTLESS","PSYCHIATRIC DISORDERS","MILD","N",0,"POSSIBLE","Y","Y","Y",,1,1,,,,,10/24/2013 0:00:00 AM,,57,57,,,"Xanomeline High Dose","Xan_Hi",2,61,"<65",1,"CAUCASIAN",1,"M","Y","Y","Y","N","MedDRA version 8.0 (partially masked by request of MSSO)","N","N","N","N","N","N","HLGT_0124","HLT_0657","LISTLESSNESS",11/5/2013 0:00:00 AM,69,8/29/2013 0:00:00 AM
"01-701-1302",23,"CDISCPILOT01","ADAE","701","1302","VERBATIM_1773","LIBIDO DECREASED","PSYCHIATRIC DISORDERS","MILD","N",0,"POSSIBLE","Y","Y","Y",,,1,,,,,10/24/2013 0:00:00 AM,,57,57,,,"Xanomeline High Dose","Xan_Hi",2,61,"<65",1,"CAUCASIAN",1,"M","Y","Y","Y","N","MedDRA version 8.0 (partially masked by request of MSSO)","N","N","N","N","N","N","HLGT_0496","HLT_0338","LIBIDO DECREASED",11/5/2013 0:00:00 AM,69,8/29/2013 0:00:00 AM
"01-701-1317",1,"CDISCPILOT01","ADAE","701","1317","VERBATIM_0468","ONYCHOMYCOSIS","INFECTIONS AND INFESTATIONS","MILD","N",0,"NONE",,"N","N",,,,,,,,5/13/2014 0:00:00 AM,,-9,-8,,,"Xanomeline Low Dose","Xan_Lo",1,68,"65-80",2,"CAUCASIAN",1,"M","Y","Y","Y","Y","MedDRA version 8.0 (partially masked by request of MSSO)","N","N","N","N","N","N","HLGT_0243","HLT_0275","ONYCHOMYCOSIS",11/20/2014 0:00:00 AM,183,5/22/2014 0:00:00 AM
"01-701-1317",2,"CDISCPILOT01","ADAE","701","1317","VERBATIM_1010","CYST","GENERAL DISORDERS AND ADMINISTRATION SITE CONDITIONS","MILD","N",0,"NONE",,"N","N",,,,,,,,5/13/2014 0:00:00 AM,,-9,-8,,,"Xanomeline Low Dose","Xan_Lo",1,68,"65-80",2,"CAUCASIAN",1,"M","Y","Y","Y","Y","MedDRA version 8.0 (partially masked by request of MSSO)","N","N","N","N","N","N","HLGT_0341","HLT_0763","CYST",11/20/2014 0:00:00 AM,183,5/22/2014 0:00:00 AM
"01-701-1317",3,"CDISCPILOT01","ADAE","701","1317","VERBATIM_0716","APPLICATION SITE ERYTHEMA","GENERAL DISORDERS AND ADMINISTRATION SITE CONDITIONS","MILD","N",0,"POSSIBLE",,"Y","Y",1,1,1,,,,1,6/23/2014 0:00:00 AM,,33,33,,,"Xanomeline Low Dose","Xan_Lo",1,68,"65-80",2,"CAUCASIAN",1,"M","Y","Y","Y","Y","MedDRA version 8.0 (partially masked by request of MSSO)","N","N","N","N","N","N","HLGT_0152","HLT_0617","APPLICATION SITE REDNESS",11/20/2014 0:00:00 AM,183,5/22/2014 0:00:00 AM
"01-701-1317",4,"CDISCPILOT01","ADAE","701","1317","VERBATIM_1219","APPLICATION SITE PRURITUS","GENERAL DISORDERS AND ADMINISTRATION SITE CONDITIONS","MILD","N",0,"POSSIBLE",,"Y","Y",,,1,,,,1,6/23/2014 0:00:00 AM,,33,33,,,"Xanomeline Low Dose","Xan_Lo",1,68,"65-80",2,"CAUCASIAN",1,"M","Y","Y","Y","Y","MedDRA version 8.0 (partially masked by request of MSSO)","N","N","N","N","N","N","HLGT_0338","HLT_0317","APPLICATION SITE ITCHING",11/20/2014 0:00:00 AM,183,5/22/2014 0:00:00 AM
"01-701-1317",5,"CDISCPILOT01","ADAE","701","1317","VERBATIM_1456","APPLICATION SITE URTICARIA","GENERAL DISORDERS AND ADMINISTRATION SITE CONDITIONS","MILD","N",0,"POSSIBLE",,"Y","Y",,,1,,,,1,6/23/2014 0:00:00 AM,,33,33,,,"Xanomeline Low Dose","Xan_Lo",1,68,"65-80",2,"CAUCASIAN",1,"M","Y","Y","Y","Y","MedDRA version 8.0 (partially masked by request of MSSO)","N","N","N","N","N","N","HLGT_0233","HLT_0196","APPLICATION SITE URTICARIA",11/20/2014 0:00:00 AM,183,5/22/2014 0:00:00 AM
"01-701-1317",6,"CDISCPILOT01","ADAE","701","1317","VERBATIM_0326","DEPRESSED MOOD","PSYCHIATRIC DISORDERS","MILD","N",0,"POSSIBLE",,"Y","Y",,1,1,,,,,7/4/2014 0:00:00 AM,,44,44,,,"Xanomeline Low Dose","Xan_Lo",1,68,"65-80",2,"CAUCASIAN",1,"M","Y","Y","Y","Y","MedDRA version 8.0 (partially masked by request of MSSO)","N","N","N","N","N","N","HLGT_0122","HLT_0784","DEPRESSED MOOD",11/20/2014 0:00:00 AM,183,5/22/2014 0:00:00 AM
"01-701-1317",7,"CDISCPILOT01","ADAE","701","1317","VERBATIM_0326","DEPRESSED MOOD","PSYCHIATRIC DISORDERS","MODERATE","N",0,"POSSIBLE",,"Y","Y",,,,,,,,7/4/2014 0:00:00 AM,,44,44,,,"Xanomeline Low Dose","Xan_Lo",1,68,"65-80",2,"CAUCASIAN",1,"M","Y","Y","Y","Y","MedDRA version 8.0 (partially masked by request of MSSO)","N","N","N","N","N","N","HLGT_0122","HLT_0784","DEPRESSED MOOD",11/20/2014 0:00:00 AM,183,5/22/2014 0:00:00 AM
"01-701-1317",8,"CDISCPILOT01","ADAE","701","1317","VERBATIM_1301","FATIGUE","GENERAL DISORDERS AND ADMINISTRATION SITE CONDITIONS","MILD","N",0,"REMOTE",,"Y","Y",,,1,,,,,9/12/2014 0:00:00 AM,,114,114,,,"Xanomeline Low Dose","Xan_Lo",1,68,"65-80",2,"CAUCASIAN",1,"M","Y","Y","Y","Y","MedDRA version 8.0 (partially masked by request of MSSO)","N","N","N","N","N","N","HLGT_0181","HLT_0043","TIREDNESS",11/20/2014 0:00:00 AM,183,5/22/2014 0:00:00 AM
"01-701-1317",9,"CDISCPILOT01","ADAE","701","1317","VERBATIM_0933","DYSPHONIA","RESPIRATORY, THORACIC AND MEDIASTINAL DISORDERS","MILD","N",0,"REMOTE",,"Y","Y",,1,1,,,,,11/3/2014 0:00:00 AM,,166,166,,,"Xanomeline Low Dose","Xan_Lo",1,68,"65-80",2,"CAUCASIAN",1,"M","Y","Y","Y","Y","MedDRA version 8.0 (partially masked by request of MSSO)","N","N","N","N","N","N","HLGT_0274","HLT_0073","HOARSENESS",11/20/2014 0:00:00 AM,183,5/22/2014 0:00:00 AM
"01-701-1324",1,"CDISCPILOT01","ADAE","701","1324","VERBATIM_0013","APPLICATION SITE ERYTHEMA","GENERAL DISORDERS AND ADMINISTRATION SITE CONDITIONS","MILD","N",0,"PROBABLE",,"Y","Y",1,1,1,,,,1,10/22/2012 0:00:00 AM,,21,21,,,"Xanomeline Low Dose","Xan_Lo",1,79,"65-80",2,"CAUCASIAN",1,"M","Y","Y","Y","Y","MedDRA version 8.0 (partially masked by request of MSSO)","N","N","N","N","N","N","HLGT_0152","HLT_0617","APPLICATION SITE ERYTHEMA",4/2/2013 0:00:00 AM,183,10/2/2012 0:00:00 AM
"01-701-1324",2,"CDISCPILOT01","ADAE","701","1324","VERBATIM_1035","APPLICATION SITE PRURITUS","GENERAL DISORDERS AND ADMINISTRATION SITE CONDITIONS","MILD","N",0,"PROBABLE",,"Y","Y",,,1,,,,1,12/2/2012 0:00:00 AM,,62,62,,,"Xanomeline Low Dose","Xan_Lo",1,79,"65-80",2,"CAUCASIAN",1,"M","Y","Y","Y","Y","MedDRA version 8.0 (partially masked by request of MSSO)","N","N","N","N","N","N","HLGT_0338","HLT_0317","APPLICATION SITE ITCHING",4/2/2013 0:00:00 AM,183,10/2/2012 0:00:00 AM
"01-701-1324",3,"CDISCPILOT01","ADAE","701","1324","VERBATIM_0996","APPLICATION SITE VESICLES","GENERAL DISORDERS AND ADMINISTRATION SITE CONDITIONS","MILD","N",0,"PROBABLE",,"Y","Y",,,1,,,,1,12/25/2012 0:00:00 AM,,85,85,1/16/2013 0:00:00 AM,107,"Xanomeline Low Dose","Xan_Lo",1,79,"65-80",2,"CAUCASIAN",1,"M","Y","Y","Y","Y","MedDRA version 8.0 (partially masked by request of MSSO)","N","N","N","N","N","N","HLGT_0576","HLT_0180","APPLICATION SITE BLISTER",4/2/2013 0:00:00 AM,183,10/2/2012 0:00:00 AM
"01-701-1324",4,"CDISCPILOT01","ADAE","701","1324","VERBATIM_0996","APPLICATION SITE VESICLES","GENERAL DISORDERS AND ADMINISTRATION SITE CONDITIONS","MILD","N",0,"PROBABLE",,"Y","Y",,,,,,,1,12/25/2012 0:00:00 AM,,85,85,1/16/2013 0:00:00 AM,107,"Xanomeline Low Dose","Xan_Lo",1,79,"65-80",2,"CAUCASIAN",1,"M","Y","Y","Y","Y","MedDRA version 8.0 (partially masked by request of MSSO)","N","N","N","N","N","N","HLGT_0576","HLT_0180","APPLICATION SITE BLISTER",4/2/2013 0:00:00 AM,183,10/2/2012 0:00:00 AM
"01-701-1341",1,"CDISCPILOT01","ADAE","701","1341","VERBATIM_1271","APPLICATION SITE PRURITUS","GENERAL DISORDERS AND ADMINISTRATION SITE CONDITIONS","MODERATE","N",0,"PROBABLE","Y","Y","Y",1,1,1,,,,1,1/19/2013 0:00:00 AM,,15,15,,,"Xanomeline Low Dose","Xan_Lo",1,51,"<65",1,"CAUCASIAN",1,"M","Y","Y","Y","N","MedDRA version 8.0 (partially masked by request of MSSO)","N","N","N","N","N","N","HLGT_0338","HLT_0317","APPLICATION SITE ITCHING",1/26/2013 0:00:00 AM,22,1/5/2013 0:00:00 AM
"01-701-1341",2,"CDISCPILOT01","ADAE","701","1341","VERBATIM_0437","APPLICATION SITE ERYTHEMA","GENERAL DISORDERS AND ADMINISTRATION SITE CONDITIONS","MODERATE","N",0,"PROBABLE","Y","Y","Y",,,1,,,,1,1/19/2013 0:00:00 AM,,15,15,,,"Xanomeline Low Dose","Xan_Lo",1,51,"<65",1,"CAUCASIAN",1,"M","Y","Y","Y","N","MedDRA version 8.0 (partially masked by request of MSSO)","N","N","N","N","N","N","HLGT_0152","HLT_0617","APPLICATION SITE REDNESS",1/26/2013 0:00:00 AM,22,1/5/2013 0:00:00 AM
"01-701-1341",3,"CDISCPILOT01","ADAE","701","1341","VERBATIM_1318","APPLICATION SITE PRURITUS","GENERAL DISORDERS AND ADMINISTRATION SITE CONDITIONS","MODERATE","N",0,"PROBABLE","Y","Y","Y",,,,,,,1,1/26/2013 0:00:00 AM,,22,22,1/30/2013 0:00:00 AM,26,"Xanomeline Low Dose","Xan_Lo",1,51,"<65",1,"CAUCASIAN",1,"M","Y","Y","Y","N","MedDRA version 8.0 (partially masked by request of MSSO)","N","N","N","N","N","N","HLGT_0338","HLT_0317","APPLICATION SITE ITCHING",1/26/2013 0:00:00 AM,22,1/5/2013 0:00:00 AM
"01-701-1341",4,"CDISCPILOT01","ADAE","701","1341","VERBATIM_1791","APPLICATION SITE ERYTHEMA","GENERAL DISORDERS AND ADMINISTRATION SITE CONDITIONS","MODERATE","N",0,"PROBABLE","Y","Y","Y",,,,,,,1,1/26/2013 0:00:00 AM,,22,22,,,"Xanomeline Low Dose","Xan_Lo",1,51,"<65",1,"CAUCASIAN",1,"M","Y","Y","Y","N","MedDRA version 8.0 (partially masked by request of MSSO)","N","N","N","N","N","N","HLGT_0152","HLT_0617","APPLICATION SITE REDNESS",1/26/2013 0:00:00 AM,22,1/5/2013 0:00:00 AM
"01-701-1341",5,"CDISCPILOT01","ADAE","701","1341","VERBATIM_0810","APPLICATION SITE IRRITATION","GENERAL DISORDERS AND ADMINISTRATION SITE CONDITIONS","MODERATE","N",0,"PROBABLE","Y","Y","Y",,,1,,,,1,1/26/2013 0:00:00 AM,,22,22,1/30/2013 0:00:00 AM,26,"Xanomeline Low Dose","Xan_Lo",1,51,"<65",1,"CAUCASIAN",1,"M","Y","Y","Y","N","MedDRA version 8.0 (partially masked by request of MSSO)","N","N","N","N","N","N","HLGT_0346","HLT_0061","APPLICATION SITE BURNING",1/26/2013 0:00:00 AM,22,1/5/2013 0:00:00 AM
"01-701-1360",1,"CDISCPILOT01","ADAE","701","1360","VERBATIM_0709","APPLICATION SITE ERYTHEMA","GENERAL DISORDERS AND ADMINISTRATION SITE CONDITIONS","MODERATE","N",0,"PROBABLE",,"Y","Y",1,1,1,,,,1,8/2/2013 0:00:00 AM,,3,3,,,"Xanomeline High Dose","Xan_Hi",2,67,"65-80",2,"CAUCASIAN",1,"M","Y","Y","Y","N","MedDRA version 8.0 (partially masked by request of MSSO)","N","N","N","N","N","N","HLGT_0152","HLT_0617","APPLICATION SITE ERYTHEMA",8/5/2013 0:00:00 AM,6,7/31/2013 0:00:00 AM
"01-701-1360",2,"CDISCPILOT01","ADAE","701","1360","VERBATIM_1219","APPLICATION SITE PRURITUS","GENERAL DISORDERS AND ADMINISTRATION SITE CONDITIONS","MODERATE","N",0,"PROBABLE",,"Y","Y",,,1,,,,1,8/2/2013 0:00:00 AM,,3,3,,,"Xanomeline High Dose","Xan_Hi",2,67,"65-80",2,"CAUCASIAN",1,"M","Y","Y","Y","N","MedDRA version 8.0 (partially masked by request of MSSO)","N","N","N","N","N","N","HLGT_0338","HLT_0317","APPLICATION SITE ITCHING",8/5/2013 0:00:00 AM,6,7/31/2013 0:00:00 AM
"01-701-1360",3,"CDISCPILOT01","ADAE","701","1360","VERBATIM_0996","APPLICATION SITE VESICLES","GENERAL DISORDERS AND ADMINISTRATION SITE CONDITIONS","MODERATE","N",0,"PROBABLE",,"Y","Y",,,1,,,,1,8/5/2013 0:00:00 AM,,6,6,,,"Xanomeline High Dose","Xan_Hi",2,67,"65-80",2,"CAUCASIAN",1,"M","Y","Y","Y","N","MedDRA version 8.0 (partially masked by request of MSSO)","N","N","N","N","N","N","HLGT_0576","HLT_0180","APPLICATION SITE BLISTER",8/5/2013 0:00:00 AM,6,7/31/2013 0:00:00 AM
"01-701-1363",1,"CDISCPILOT01","ADAE","701","1363","VERBATIM_0775","NAUSEA","GASTROINTESTINAL DISORDERS","MILD","N",0,"REMOTE",,"Y","Y",1,1,1,,,,,6/14/2013 0:00:00 AM,,16,16,6/15/2013 0:00:00 AM,17,"Placebo","Pbo",0,81,">80",3,"AFRICAN DESCENT (NEGRO, BLACK)",2,"F","Y","Y","Y","Y","MedDRA version 8.0 (partially masked by request of MSSO)","N","N","N","N","N","N","HLGT_0326","HLT_0742","NAUSEA",11/27/2013 0:00:00 AM,182,5/30/2013 0:00:00 AM
"01-701-1363",2,"CDISCPILOT01","ADAE","701","1363","VERBATIM_0301","HEADACHE","NERVOUS SYSTEM DISORDERS","MODERATE","N",0,"POSSIBLE",,"N","N",,,,,,,,,,,,,,"Placebo","Pbo",0,81,">80",3,"AFRICAN DESCENT (NEGRO, BLACK)",2,"F","Y","Y","Y","Y","MedDRA version 8.0 (partially masked by request of MSSO)","N","N","N","N","N","N","HLGT_0344","HLT_0064","HEADACHE",11/27/2013 0:00:00 AM,182,5/30/2013 0:00:00 AM
"01-701-1363",3,"CDISCPILOT01","ADAE","701","1363","VERBATIM_1219","APPLICATION SITE PRURITUS","GENERAL DISORDERS AND ADMINISTRATION SITE CONDITIONS","MILD","N",0,"PROBABLE",,"Y","Y",,1,1,,,,1,7/16/2013 0:00:00 AM,,48,48,,,"Placebo","Pbo",0,81,">80",3,"AFRICAN DESCENT (NEGRO, BLACK)",2,"F","Y","Y","Y","Y","MedDRA version 8.0 (partially masked by request of MSSO)","N","N","N","N","N","N","HLGT_0338","HLT_0317","APPLICATION SITE ITCHING",11/27/2013 0:00:00 AM,182,5/30/2013 0:00:00 AM
"01-701-1363",4,"CDISCPILOT01","ADAE","701","1363","VERBATIM_0301","HEADACHE","NERVOUS SYSTEM DISORDERS","MILD","N",0,"POSSIBLE",,"N","N",,,,,,,,,,,,,,"Placebo","Pbo",0,81,">80",3,"AFRICAN DESCENT (NEGRO, BLACK)",2,"F","Y","Y","Y","Y","MedDRA version 8.0 (partially masked by request of MSSO)","N","N","N","N","N","N","HLGT_0344","HLT_0064","HEADACHE",11/27/2013 0:00:00 AM,182,5/30/2013 0:00:00 AM
"01-701-1363",5,"CDISCPILOT01","ADAE","701","1363","VERBATIM_1742","BACK PAIN","MUSCULOSKELETAL AND CONNECTIVE TISSUE DISORDERS","MILD","N",0,"NONE",,"Y","Y",,1,1,,,,,10/13/2013 0:00:00 AM,,137,137,10/15/2013 0:00:00 AM,139,"Placebo","Pbo",0,81,">80",3,"AFRICAN DESCENT (NEGRO, BLACK)",2,"F","Y","Y","Y","Y","MedDRA version 8.0 (partially masked by request of MSSO)","N","N","N","N","N","N","HLGT_0508","HLT_0115","BACKACHE",11/27/2013 0:00:00 AM,182,5/30/2013 0:00:00 AM
"01-701-1363",6,"CDISCPILOT01","ADAE","701","1363","VERBATIM_1742","BACK PAIN","MUSCULOSKELETAL AND CONNECTIVE TISSUE DISORDERS","MILD","N",0,"NONE",,"Y","Y",,,,,,,,10/13/2013 0:00:00 AM,,137,137,10/15/2013 0:00:00 AM,139,"Placebo","Pbo",0,81,">80",3,"AFRICAN DESCENT (NEGRO, BLACK)",2,"F","Y","Y","Y","Y","MedDRA version 8.0 (partially masked by request of MSSO)","N","N","N","N","N","N","HLGT_0508","HLT_0115","BACKACHE",11/27/2013 0:00:00 AM,182,5/30/2013 0:00:00 AM
"01-701-1383",1,"CDISCPILOT01","ADAE","701","1383","VERBATIM_1035","APPLICATION SITE PRURITUS","GENERAL DISORDERS AND ADMINISTRATION SITE CONDITIONS","MILD","N",0,"PROBABLE",,"Y","Y",1,1,1,,,,1,2/7/2013 0:00:00 AM,,4,4,2/7/2013 0:00:00 AM,4,"Xanomeline High Dose","Xan_Hi",2,72,"65-80",2,"CAUCASIAN",1,"F","Y","Y","Y","Y","MedDRA version 8.0 (partially masked by request of MSSO)","N","N","N","N","N","N","HLGT_0338","HLT_0317","APPLICATION SITE ITCHING",8/6/2013 0:00:00 AM,184,2/4/2013 0:00:00 AM
"01-701-1383",2,"CDISCPILOT01","ADAE","701","1383","VERBATIM_0725","APPLICATION SITE PAIN","GENERAL DISORDERS AND ADMINISTRATION SITE CONDITIONS","MILD","N",0,"PROBABLE",,"Y","Y",,,1,,,,1,2/7/2013 0:00:00 AM,,4,4,2/7/2013 0:00:00 AM,4,"Xanomeline High Dose","Xan_Hi",2,72,"65-80",2,"CAUCASIAN",1,"F","Y","Y","Y","Y","MedDRA version 8.0 (partially masked by request of MSSO)","N","N","N","N","N","N","HLGT_0085","HLT_0342","APPLICATION SITE PAIN",8/6/2013 0:00:00 AM,184,2/4/2013 0:00:00 AM
"01-701-1383",3,"CDISCPILOT01","ADAE","701","1383","VERBATIM_1157","APPLICATION SITE ERYTHEMA","GENERAL DISORDERS AND ADMINISTRATION SITE CONDITIONS","MILD","N",0,"POSSIBLE",,"Y","Y",,,1,,,,1,3/23/2013 0:00:00 AM,,48,48,3/26/2013 0:00:00 AM,51,"Xanomeline High Dose","Xan_Hi",2,72,"65-80",2,"CAUCASIAN",1,"F","Y","Y","Y","Y","MedDRA version 8.0 (partially masked by request of MSSO)","N","N","N","N","N","N","HLGT_0152","HLT_0617","APPLICATION SITE ERYTHEMA",8/6/2013 0:00:00 AM,184,2/4/2013 0:00:00 AM
"01-701-1383",4,"CDISCPILOT01","ADAE","701","1383","VERBATIM_1035","APPLICATION SITE PRURITUS","GENERAL DISORDERS AND ADMINISTRATION SITE CONDITIONS","MILD","N",0,"POSSIBLE",,"Y","Y",,,,,,,1,3/23/2013 0:00:00 AM,,48,48,,,"Xanomeline High Dose","Xan_Hi",2,72,"65-80",2,"CAUCASIAN",1,"F","Y","Y","Y","Y","MedDRA version 8.0 (partially masked by request of MSSO)","N","N","N","N","N","N","HLGT_0338","HLT_0317","APPLICATION SITE ITCHING",8/6/2013 0:00:00 AM,184,2/4/2013 0:00:00 AM
"01-701-1383",5,"CDISCPILOT01","ADAE","701","1383","VERBATIM_0349","APPLICATION SITE ERYTHEMA","GENERAL DISORDERS AND ADMINISTRATION SITE CONDITIONS","MILD","N",0,"POSSIBLE",,"Y","Y",,,,,,,1,4/12/2013 0:00:00 AM,,68,68,,,"Xanomeline High Dose","Xan_Hi",2,72,"65-80",2,"CAUCASIAN",1,"F","Y","Y","Y","Y","MedDRA version 8.0 (partially masked by request of MSSO)","N","N","N","N","N","N","HLGT_0152","HLT_0617","APPLICATION SITE ERYTHEMA",8/6/2013 0:00:00 AM,184,2/4/2013 0:00:00 AM
"01-701-1383",6,"CDISCPILOT01","ADAE","701","1383","VERBATIM_1067","APPLICATION SITE IRRITATION","GENERAL DISORDERS AND ADMINISTRATION SITE CONDITIONS","MILD","N",0,"POSSIBLE",,"Y","Y",,,1,,,,1,4/12/2013 0:00:00 AM,,68,68,,,"Xanomeline High Dose","Xan_Hi",2,72,"65-80",2,"CAUCASIAN",1,"F","Y","Y","Y","Y","MedDRA version 8.0 (partially masked by request of MSSO)","N","N","N","N","N","N","HLGT_0346","HLT_0061","APPLICATION SITE BURNING",8/6/2013 0:00:00 AM,184,2/4/2013 0:00:00 AM
"01-701-1383",7,"CDISCPILOT01","ADAE","701","1383","VERBATIM_1035","APPLICATION SITE PRURITUS","GENERAL DISORDERS AND ADMINISTRATION SITE CONDITIONS","MODERATE","N",0,"POSSIBLE",,"Y","Y",,,,,,,1,3/23/2013 0:00:00 AM,,48,48,,,"Xanomeline High Dose","Xan_Hi",2,72,"65-80",2,"CAUCASIAN",1,"F","Y","Y","Y","Y","MedDRA version 8.0 (partially masked by request of MSSO)","N","N","N","N","N","N","HLGT_0338","HLT_0317","APPLICATION SITE ITCHING",8/6/2013 0:00:00 AM,184,2/4/2013 0:00:00 AM
"01-701-1383",8,"CDISCPILOT01","ADAE","701","1383","VERBATIM_1067","APPLICATION SITE IRRITATION","GENERAL DISORDERS AND ADMINISTRATION SITE CONDITIONS","MODERATE","N",0,"POSSIBLE",,"Y","Y",,,,,,,1,4/12/2013 0:00:00 AM,,68,68,,,"Xanomeline High Dose","Xan_Hi",2,72,"65-80",2,"CAUCASIAN",1,"F","Y","Y","Y","Y","MedDRA version 8.0 (partially masked by request of MSSO)","N","N","N","N","N","N","HLGT_0346","HLT_0061","APPLICATION SITE BURNING",8/6/2013 0:00:00 AM,184,2/4/2013 0:00:00 AM
"01-701-1383",9,"CDISCPILOT01","ADAE","701","1383","VERBATIM_0880","APPLICATION SITE VESICLES","GENERAL DISORDERS AND ADMINISTRATION SITE CONDITIONS","MILD","N",0,"POSSIBLE",,"Y","Y",,,1,,,,1,5/7/2013 0:00:00 AM,,93,93,5/24/2013 0:00:00 AM,110,"Xanomeline High Dose","Xan_Hi",2,72,"65-80",2,"CAUCASIAN",1,"F","Y","Y","Y","Y","MedDRA version 8.0 (partially masked by request of MSSO)","N","N","N","N","N","N","HLGT_0576","HLT_0180","APPLICATION SITE BLISTER",8/6/2013 0:00:00 AM,184,2/4/2013 0:00:00 AM
"01-701-1383",10,"CDISCPILOT01","ADAE","701","1383","VERBATIM_0653","CHEST DISCOMFORT","GENERAL DISORDERS AND ADMINISTRATION SITE CONDITIONS","MILD","N",0,"NONE",,"Y","Y",,,1,,,,,6/24/2013 0:00:00 AM,,141,141,6/24/2013 0:00:00 AM,141,"Xanomeline High Dose","Xan_Hi",2,72,"65-80",2,"CAUCASIAN",1,"F","Y","Y","Y","Y","MedDRA version 8.0 (partially masked by request of MSSO)","N","N","N","N","N","N","HLGT_0441","HLT_0593","CHEST PRESSURE",8/6/2013 0:00:00 AM,184,2/4/2013 0:00:00 AM
"01-701-1383",11,"CDISCPILOT01","ADAE","701","1383","VERBATIM_1739","HEADACHE","NERVOUS SYSTEM DISORDERS","MILD","N",0,"NONE",,"Y","Y",,1,1,,,,,6/24/2013 0:00:00 AM,,141,141,6/24/2013 0:00:00 AM,141,"Xanomeline High Dose","Xan_Hi",2,72,"65-80",2,"CAUCASIAN",1,"F","Y","Y","Y","Y","MedDRA version 8.0 (partially masked by request of MSSO)","N","N","N","N","N","N","HLGT_0344","HLT_0064","FULLNESS HEAD",8/6/2013 0:00:00 AM,184,2/4/2013 0:00:00 AM
"01-701-1383",12,"CDISCPILOT01","ADAE","701","1383","VERBATIM_0910","COUGH","RESPIRATORY, THORACIC AND MEDIASTINAL DISORDERS","MODERATE","N",0,"NONE",,"Y","Y",,1,1,,,,,7/17/2013 0:00:00 AM,,164,164,7/26/2013 0:00:00 AM,173,"Xanomeline High Dose","Xan_Hi",2,72,"65-80",2,"CAUCASIAN",1,"F","Y","Y","Y","Y","MedDRA version 8.0 (partially masked by request of MSSO)","N","N","N","N","N","N","HLGT_0280","HLT_0701","COUGH",8/6/2013 0:00:00 AM,184,2/4/2013 0:00:00 AM
"01-701-1387",1,"CDISCPILOT01","ADAE","701","1387","VERBATIM_1126","DIARRHOEA","GASTROINTESTINAL DISORDERS","MILD","N",0,"REMOTE",,"Y","Y",1,1,1,,,,,3/18/2014 0:00:00 AM,,7,7,3/18/2014 0:00:00 AM,7,"Placebo","Pbo",0,87,">80",3,"CAUCASIAN",1,"F","Y","Y","Y","N","MedDRA version 8.0 (partially masked by request of MSSO)","N","N","N","N","N","N","HLGT_0588","HLT_0148","DIARRHEA",3/25/2014 0:00:00 AM,14,3/12/2014 0:00:00 AM
"01-701-1387",2,"CDISCPILOT01","ADAE","701","1387","VERBATIM_1343","HYPERHIDROSIS","SKIN AND SUBCUTANEOUS TISSUE DISORDERS","MILD","N",0,"REMOTE",,"Y","Y",,1,1,,,,,3/18/2014 0:00:00 AM,,7,7,3/18/2014 0:00:00 AM,7,"Placebo","Pbo",0,87,">80",3,"CAUCASIAN",1,"F","Y","Y","Y","N","MedDRA version 8.0 (partially masked by request of MSSO)","N","N","N","N","N","N","HLGT_0005","HLT_0587","SWEATING",3/25/2014 0:00:00 AM,14,3/12/2014 0:00:00 AM
"01-701-1392",1,"CDISCPILOT01","ADAE","701","1392","VERBATIM_0579","UPPER RESPIRATORY TRACT INFECTION","INFECTIONS AND INFESTATIONS","MILD","N",0,"REMOTE",,"Y","Y",1,1,1,,,,,3/16/2013 0:00:00 AM,,140,140,3/21/2013 0:00:00 AM,145,"Placebo","Pbo",0,78,"65-80",2,"CAUCASIAN",1,"M","Y","Y","Y","Y","MedDRA version 8.0 (partially masked by request of MSSO)","N","N","N","N","N","N","HLGT_0489","HLT_0520","UPPER RESPIRATORY INFECTION",4/28/2013 0:00:00 AM,183,10/28/2012 0:00:00 AM
"01-701-1392",2,"CDISCPILOT01","ADAE","701","1392","VERBATIM_0579","UPPER RESPIRATORY TRACT INFECTION","INFECTIONS AND INFESTATIONS","MILD","N",0,"REMOTE",,"Y","Y",,,,,,,,3/16/2013 0:00:00 AM,,140,140,3/21/2013 0:00:00 AM,145,"Placebo","Pbo",0,78,"65-80",2,"CAUCASIAN",1,"M","Y","Y","Y","Y","MedDRA version 8.0 (partially masked by request of MSSO)","N","N","N","N","N","N","HLGT_0489","HLT_0520","UPPER RESPIRATORY INFECTION",4/28/2013 0:00:00 AM,183,10/28/2012 0:00:00 AM
"01-701-1415",1,"CDISCPILOT01","ADAE","701","1415","VERBATIM_0579","UPPER RESPIRATORY TRACT INFECTION","INFECTIONS AND INFESTATIONS","MILD","N",0,"NONE",,"Y","Y",1,1,1,,,,,10/21/2013 0:00:00 AM,,29,29,11/4/2013 0:00:00 AM,43,"Placebo","Pbo",0,85,">80",3,"CAUCASIAN",1,"M","Y","Y","Y","Y","MedDRA version 8.0 (partially masked by request of MSSO)","N","N","N","N","N","N","HLGT_0489","HLT_0520","UPPER RESPIRATORY INFECTION",3/24/2014 0:00:00 AM,183,9/23/2013 0:00:00 AM
"01-701-1415",2,"CDISCPILOT01","ADAE","701","1415","VERBATIM_0579","UPPER RESPIRATORY TRACT INFECTION","INFECTIONS AND INFESTATIONS","MILD","N",0,"NONE",,"Y","Y",,,,,,,,10/21/2013 0:00:00 AM,,29,29,11/4/2013 0:00:00 AM,43,"Placebo","Pbo",0,85,">80",3,"CAUCASIAN",1,"M","Y","Y","Y","Y","MedDRA version 8.0 (partially masked by request of MSSO)","N","N","N","N","N","N","HLGT_0489","HLT_0520","UPPER RESPIRATORY INFECTION",3/24/2014 0:00:00 AM,183,9/23/2013 0:00:00 AM
"01-701-1415",3,"CDISCPILOT01","ADAE","701","1415","VERBATIM_1179","MICTURITION URGENCY","RENAL AND URINARY DISORDERS","MILD","N",0,"NONE",,"Y","Y",,1,1,,,,,12/2/2013 0:00:00 AM,,71,71,,,"Placebo","Pbo",0,85,">80",3,"CAUCASIAN",1,"M","Y","Y","Y","Y","MedDRA version 8.0 (partially masked by request of MSSO)","N","N","N","N","N","N","HLGT_0483","HLT_0294","URINARY URGENCY",3/24/2014 0:00:00 AM,183,9/23/2013 0:00:00 AM
"01-701-1415",4,"CDISCPILOT01","ADAE","701","1415","VERBATIM_0579","UPPER RESPIRATORY TRACT INFECTION","INFECTIONS AND INFESTATIONS","MILD","N",0,"REMOTE",,"Y","Y",,,,,,,,1/21/2014 0:00:00 AM,,121,121,2/10/2014 0:00:00 AM,141,"Placebo","Pbo",0,85,">80",3,"CAUCASIAN",1,"M","Y","Y","Y","Y","MedDRA version 8.0 (partially masked by request of MSSO)","N","N","N","N","N","N","HLGT_0489","HLT_0520","UPPER RESPIRATORY INFECTION",3/24/2014 0:00:00 AM,183,9/23/2013 0:00:00 AM
"01-701-1415",5,"CDISCPILOT01","ADAE","701","1415","VERBATIM_0579","UPPER RESPIRATORY TRACT INFECTION","INFECTIONS AND INFESTATIONS","MILD","N",0,"REMOTE",,"Y","Y",,,,,,,,1/21/2014 0:00:00 AM,,121,121,2/10/2014 0:00:00 AM,141,"Placebo","Pbo",0,85,">80",3,"CAUCASIAN",1,"M","Y","Y","Y","Y","MedDRA version 8.0 (partially masked by request of MSSO)","N","N","N","N","N","N","HLGT_0489","HLT_0520","UPPER RESPIRATORY INFECTION",3/24/2014 0:00:00 AM,183,9/23/2013 0:00:00 AM
"01-701-1415",6,"CDISCPILOT01","ADAE","701","1415","VERBATIM_1126","DIARRHOEA","GASTROINTESTINAL DISORDERS","MILD","N",0,"NONE",,"Y","Y",,1,1,,,,,3/9/2014 0:00:00 AM,,168,168,3/9/2014 0:00:00 AM,168,"Placebo","Pbo",0,85,">80",3,"CAUCASIAN",1,"M","Y","Y","Y","Y","MedDRA version 8.0 (partially masked by request of MSSO)","N","N","N","N","N","N","HLGT_0588","HLT_0148","DIARRHEA",3/24/2014 0:00:00 AM,183,9/23/2013 0:00:00 AM
"01-701-1442",1,"CDISCPILOT01","ADAE","701","1442","VERBATIM_1219","APPLICATION SITE PRURITUS","GENERAL DISORDERS AND ADMINISTRATION SITE CONDITIONS","MILD","N",0,"PROBABLE",,"Y","Y",1,1,1,,,,1,1/10/2014 0:00:00 AM,,77,77,,,"Xanomeline Low Dose","Xan_Lo",1,57,"<65",1,"AFRICAN DESCENT (NEGRO, BLACK)",2,"F","Y","Y","Y","Y","MedDRA version 8.0 (partially masked by request of MSSO)","N","N","N","N","N","N","HLGT_0338","HLT_0317","APPLICATION SITE ITCHING",4/26/2014 0:00:00 AM,183,10/26/2013 0:00:00 AM
"01-701-1444",1,"CDISCPILOT01","ADAE","701","1444","VERBATIM_0349","APPLICATION SITE ERYTHEMA","GENERAL DISORDERS AND ADMINISTRATION SITE CONDITIONS","MILD","N",0,"POSSIBLE","Y","Y","Y",1,1,1,,,,1,1/19/2013 0:00:00 AM,,15,15,,,"Xanomeline High Dose","Xan_Hi",2,63,"<65",1,"HISPANIC (MEXICAN - AMERICAN, MEXICO, CENTRAL AND SOUTH AMERICA)",5,"M","Y","Y","Y","N","MedDRA version 8.0 (partially masked by request of MSSO)","N","N","N","N","N","N","HLGT_0152","HLT_0617","APPLICATION SITE ERYTHEMA",2/12/2013 0:00:00 AM,39,1/5/2013 0:00:00 AM
"01-701-1444",2,"CDISCPILOT01","ADAE","701","1444","VERBATIM_0578","APPLICATION SITE PRURITUS","GENERAL DISORDERS AND ADMINISTRATION SITE CONDITIONS","MILD","N",0,"PROBABLE","Y","Y","Y",,,1,,,,1,1/19/2013 0:00:00 AM,,15,15,,,"Xanomeline High Dose","Xan_Hi",2,63,"<65",1,"HISPANIC (MEXICAN - AMERICAN, MEXICO, CENTRAL AND SOUTH AMERICA)",5,"M","Y","Y","Y","N","MedDRA version 8.0 (partially masked by request of MSSO)","N","N","N","N","N","N","HLGT_0338","HLT_0317","APPLICATION SITE ITCHING",2/12/2013 0:00:00 AM,39,1/5/2013 0:00:00 AM
"01-701-1444",3,"CDISCPILOT01","ADAE","701","1444","VERBATIM_1572","SALIVARY HYPERSECRETION","GASTROINTESTINAL DISORDERS","MILD","N",0,"POSSIBLE","Y","Y","Y",,1,1,,,,,1/19/2013 0:00:00 AM,,15,15,,,"Xanomeline High Dose","Xan_Hi",2,63,"<65",1,"HISPANIC (MEXICAN - AMERICAN, MEXICO, CENTRAL AND SOUTH AMERICA)",5,"M","Y","Y","Y","N","MedDRA version 8.0 (partially masked by request of MSSO)","N","N","N","N","N","N","HLGT_0488","HLT_0374","HYPERSALIVATION",2/12/2013 0:00:00 AM,39,1/5/2013 0:00:00 AM
"01-701-1444",4,"CDISCPILOT01","ADAE","701","1444","VERBATIM_0349","APPLICATION SITE ERYTHEMA","GENERAL DISORDERS AND ADMINISTRATION SITE CONDITIONS","MODERATE","N",0,"POSSIBLE","Y","Y","Y",,,,,,,1,1/19/2013 0:00:00 AM,,15,15,,,"Xanomeline High Dose","Xan_Hi",2,63,"<65",1,"HISPANIC (MEXICAN - AMERICAN, MEXICO, CENTRAL AND SOUTH AMERICA)",5,"M","Y","Y","Y","N","MedDRA version 8.0 (partially masked by request of MSSO)","N","N","N","N","N","N","HLGT_0152","HLT_0617","APPLICATION SITE ERYTHEMA",2/12/2013 0:00:00 AM,39,1/5/2013 0:00:00 AM
"01-701-1444",5,"CDISCPILOT01","ADAE","701","1444","VERBATIM_0578","APPLICATION SITE PRURITUS","GENERAL DISORDERS AND ADMINISTRATION SITE CONDITIONS","MODERATE","N",0,"PROBABLE","Y","Y","Y",,,,,,,1,1/19/2013 0:00:00 AM,,15,15,,,"Xanomeline High Dose","Xan_Hi",2,63,"<65",1,"HISPANIC (MEXICAN - AMERICAN, MEXICO, CENTRAL AND SOUTH AMERICA)",5,"M","Y","Y","Y","N","MedDRA version 8.0 (partially masked by request of MSSO)","N","N","N","N","N","N","HLGT_0338","HLT_0317","APPLICATION SITE ITCHING",2/12/2013 0:00:00 AM,39,1/5/2013 0:00:00 AM
"01-701-1444",6,"CDISCPILOT01","ADAE","701","1444","VERBATIM_1067","APPLICATION SITE IRRITATION","GENERAL DISORDERS AND ADMINISTRATION SITE CONDITIONS","MODERATE","N",0,"PROBABLE","Y","Y","Y",,,1,,,,1,2/4/2013 0:00:00 AM,,31,31,,,"Xanomeline High Dose","Xan_Hi",2,63,"<65",1,"HISPANIC (MEXICAN - AMERICAN, MEXICO, CENTRAL AND SOUTH AMERICA)",5,"M","Y","Y","Y","N","MedDRA version 8.0 (partially masked by request of MSSO)","N","N","N","N","N","N","HLGT_0346","HLT_0061","APPLICATION SITE BURNING",2/12/2013 0:00:00 AM,39,1/5/2013 0:00:00 AM
"01-701-1444",7,"CDISCPILOT01","ADAE","701","1444","VERBATIM_0880","APPLICATION SITE VESICLES","GENERAL DISORDERS AND ADMINISTRATION SITE CONDITIONS","MODERATE","N",0,"PROBABLE","Y","Y","Y",,,1,,,,1,2/4/2013 0:00:00 AM,,31,31,,,"Xanomeline High Dose","Xan_Hi",2,63,"<65",1,"HISPANIC (MEXICAN - AMERICAN, MEXICO, CENTRAL AND SOUTH AMERICA)",5,"M","Y","Y","Y","N","MedDRA version 8.0 (partially masked by request of MSSO)","N","N","N","N","N","N","HLGT_0576","HLT_0180","APPLICATION SITE BLISTER",2/12/2013 0:00:00 AM,39,1/5/2013 0:00:00 AM
"01-701-1444",8,"CDISCPILOT01","ADAE","701","1444","VERBATIM_0365","PARAESTHESIA","NERVOUS SYSTEM DISORDERS","MILD","N",0,"NONE","Y","Y","Y",,1,1,,,,,2/8/2013 0:00:00 AM,,35,35,2/8/2013 0:00:00 AM,35,"Xanomeline High Dose","Xan_Hi",2,63,"<65",1,"HISPANIC (MEXICAN - AMERICAN, MEXICO, CENTRAL AND SOUTH AMERICA)",5,"M","Y","Y","Y","N","MedDRA version 8.0 (partially masked by request of MSSO)","N","N","N","N","N","N","HLGT_0534","HLT_0481","TINGLING",2/12/2013 0:00:00 AM,39,1/5/2013 0:00:00 AM
"01-702-1082",1,"CDISCPILOT01","ADAE","702","1082","VERBATIM_0795","WHITE BLOOD CELL COUNT INCREASED","INVESTIGATIONS","MILD","N",0,"NONE",,"N","N",,,,,,,,7/7/2013 0:00:00 AM,,-19,-18,7/26/2013 0:00:00 AM,1,"Xanomeline Low Dose","Xan_Lo",1,84,">80",3,"CAUCASIAN",1,"F","Y","Y","Y","N","MedDRA version 8.0 (partially masked by request of MSSO)","N","N","N","N","N","N","HLGT_0465","HLT_0417","WBC INCREASED",10/13/2013 0:00:00 AM,80,7/26/2013 0:00:00 AM
"01-702-1082",2,"CDISCPILOT01","ADAE","702","1082","VERBATIM_0831","NEUTROPHIL COUNT INCREASED","INVESTIGATIONS","MILD","N",0,"NONE",,"N","N",,,,,,,,7/7/2013 0:00:00 AM,,-19,-18,7/26/2013 0:00:00 AM,1,"Xanomeline Low Dose","Xan_Lo",1,84,">80",3,"CAUCASIAN",1,"F","Y","Y","Y","N","MedDRA version 8.0 (partially masked by request of MSSO)","N","N","N","N","N","N","HLGT_0625","HLT_0326","NEUTROPHIL COUNT INCREASED",10/13/2013 0:00:00 AM,80,7/26/2013 0:00:00 AM
"01-702-1082",3,"CDISCPILOT01","ADAE","702","1082","VERBATIM_0459","URINE ANALYSIS ABNORMAL","INVESTIGATIONS","MILD","N",0,"NONE",,"N","N",,,,,,,,7/7/2013 0:00:00 AM,,-19,-18,7/24/2013 0:00:00 AM,-2,"Xanomeline Low Dose","Xan_Lo",1,84,">80",3,"CAUCASIAN",1,"F","Y","Y","Y","N","MedDRA version 8.0 (partially masked by request of MSSO)","N","N","N","N","N","N","HLGT_0295","HLT_0783","URINE ANALYSIS ABNORMAL",10/13/2013 0:00:00 AM,80,7/26/2013 0:00:00 AM
"01-702-1082",4,"CDISCPILOT01","ADAE","702","1082","VERBATIM_0459","URINE ANALYSIS ABNORMAL","INVESTIGATIONS","MILD","N",0,"NONE",,"N","N",,,,,,,,7/7/2013 0:00:00 AM,,-19,-18,7/24/2013 0:00:00 AM,-2,"Xanomeline Low Dose","Xan_Lo",1,84,">80",3,"CAUCASIAN",1,"F","Y","Y","Y","N","MedDRA version 8.0 (partially masked by request of MSSO)","N","N","N","N","N","N","HLGT_0295","HLT_0783","URINE ANALYSIS ABNORMAL",10/13/2013 0:00:00 AM,80,7/26/2013 0:00:00 AM
"01-702-1082",5,"CDISCPILOT01","ADAE","702","1082","VERBATIM_0795","WHITE BLOOD CELL COUNT INCREASED","INVESTIGATIONS","MILD","N",0,"NONE",,"N","N",,,,,,,,7/7/2013 0:00:00 AM,,-19,-18,7/26/2013 0:00:00 AM,1,"Xanomeline Low Dose","Xan_Lo",1,84,">80",3,"CAUCASIAN",1,"F","Y","Y","Y","N","MedDRA version 8.0 (partially masked by request of MSSO)","N","N","N","N","N","N","HLGT_0465","HLT_0417","WBC INCREASED",10/13/2013 0:00:00 AM,80,7/26/2013 0:00:00 AM
"01-702-1082",6,"CDISCPILOT01","ADAE","702","1082","VERBATIM_0831","NEUTROPHIL COUNT INCREASED","INVESTIGATIONS","MILD","N",0,"NONE",,"N","N",,,,,,,,7/7/2013 0:00:00 AM,,-19,-18,7/26/2013 0:00:00 AM,1,"Xanomeline Low Dose","Xan_Lo",1,84,">80",3,"CAUCASIAN",1,"F","Y","Y","Y","N","MedDRA version 8.0 (partially masked by request of MSSO)","N","N","N","N","N","N","HLGT_0625","HLT_0326","NEUTROPHIL COUNT INCREASED",10/13/2013 0:00:00 AM,80,7/26/2013 0:00:00 AM
"01-702-1082",7,"CDISCPILOT01","ADAE","702","1082","VERBATIM_0250","RECTAL HAEMORRHAGE","GASTROINTESTINAL DISORDERS","MILD","N",0,"NONE",,"Y","Y",1,1,1,,,,,9/2/2013 0:00:00 AM,,39,39,9/6/2013 0:00:00 AM,43,"Xanomeline Low Dose","Xan_Lo",1,84,">80",3,"CAUCASIAN",1,"F","Y","Y","Y","N","MedDRA version 8.0 (partially masked by request of MSSO)","N","N","N","N","N","N","HLGT_0755","HLT_0353","RECTAL BLEEDING",10/13/2013 0:00:00 AM,80,7/26/2013 0:00:00 AM
"01-702-1082",8,"CDISCPILOT01","ADAE","702","1082","VERBATIM_0250","RECTAL HAEMORRHAGE","GASTROINTESTINAL DISORDERS","MILD","N",0,"NONE",,"Y","Y",,,,,,,,9/2/2013 0:00:00 AM,,39,39,9/6/2013 0:00:00 AM,43,"Xanomeline Low Dose","Xan_Lo",1,84,">80",3,"CAUCASIAN",1,"F","Y","Y","Y","N","MedDRA version 8.0 (partially masked by request of MSSO)","N","N","N","N","N","N","HLGT_0755","HLT_0353","RECTAL BLEEDING",10/13/2013 0:00:00 AM,80,7/26/2013 0:00:00 AM
"01-702-1082",9,"CDISCPILOT01","ADAE","702","1082","VERBATIM_1336","APPLICATION SITE IRRITATION","GENERAL DISORDERS AND ADMINISTRATION SITE CONDITIONS","MILD","N",0,"PROBABLE",,"Y","Y",,1,1,,,,1,9/9/2013 0:00:00 AM,,46,46,9/24/2013 0:00:00 AM,61,"Xanomeline Low Dose","Xan_Lo",1,84,">80",3,"CAUCASIAN",1,"F","Y","Y","Y","N","MedDRA version 8.0 (partially masked by request of MSSO)","N","N","N","N","N","N","HLGT_0346","HLT_0061","APPLICATION SITE IRRITATION",10/13/2013 0:00:00 AM,80,7/26/2013 0:00:00 AM
"01-702-1082",10,"CDISCPILOT01","ADAE","702","1082","VERBATIM_1630","SKIN IRRITATION","SKIN AND SUBCUTANEOUS TISSUE DISORDERS","MODERATE","N",0,"PROBABLE",,"Y","Y",,1,1,,,,1,10/12/2013 0:00:00 AM,,79,79,10/31/2013 0:00:00 AM,98,"Xanomeline Low Dose","Xan_Lo",1,84,">80",3,"CAUCASIAN",1,"F","Y","Y","Y","N","MedDRA version 8.0 (partially masked by request of MSSO)","N","N","N","N","N","N","HLGT_0384","HLT_0583","SKIN IRRITATION",10/13/2013 0:00:00 AM,80,7/26/2013 0:00:00 AM
"01-703-1042",1,"CDISCPILOT01","ADAE","703","1042","VERBATIM_1126","DIARRHOEA","GASTROINTESTINAL DISORDERS","MILD","N",0,"POSSIBLE",,"Y","Y",1,1,1,,,,,3/4/2013 0:00:00 AM,,3,3,3/5/2013 0:00:00 AM,4,"Placebo","Pbo",0,64,"<65",1,"CAUCASIAN",1,"M","Y","Y","Y","Y","MedDRA version 8.0 (partially masked by request of MSSO)","N","N","N","N","N","N","HLGT_0588","HLT_0148","DIARRHEA",8/31/2013 0:00:00 AM,183,3/2/2013 0:00:00 AM
"01-703-1042",2,"CDISCPILOT01","ADAE","703","1042","VERBATIM_0377","INSOMNIA","PSYCHIATRIC DISORDERS","MILD","N",0,"REMOTE",,"Y","Y",,1,1,,,,,3/5/2013 0:00:00 AM,,4,4,3/6/2013 0:00:00 AM,5,"Placebo","Pbo",0,64,"<65",1,"CAUCASIAN",1,"M","Y","Y","Y","Y","MedDRA version 8.0 (partially masked by request of MSSO)","N","N","N","N","N","N","HLGT_0469","HLT_0297","INSOMNIA",8/31/2013 0:00:00 AM,183,3/2/2013 0:00:00 AM
"01-703-1076",1,"CDISCPILOT01","ADAE","703","1076","VERBATIM_1681","BIOPSY PROSTATE","INVESTIGATIONS","MODERATE","N",0,"NONE","Y","Y","Y",1,1,1,,,,,11/16/2013 0:00:00 AM,,23,23,11/16/2013 0:00:00 AM,23,"Xanomeline High Dose","Xan_Hi",2,69,"65-80",2,"CAUCASIAN",1,"M","Y","Y","Y","N","MedDRA version 8.0 (partially masked by request of MSSO)","N","N","N","N","N","N","HLGT_0725","HLT_0553","BIOPSY OF PROSTATE",12/24/2013 0:00:00 AM,61,10/25/2013 0:00:00 AM
"01-703-1076",2,"CDISCPILOT01","ADAE","703","1076","VERBATIM_0138","BENIGN PROSTATIC HYPERPLASIA","REPRODUCTIVE SYSTEM AND BREAST DISORDERS","MODERATE","N",0,"NONE","Y","Y","Y",,1,1,,,,,11/20/2013 0:00:00 AM,,27,27,,,"Xanomeline High Dose","Xan_Hi",2,69,"65-80",2,"CAUCASIAN",1,"M","Y","Y","Y","N","MedDRA version 8.0 (partially masked by request of MSSO)","N","N","N","N","N","N","HLGT_0568","HLT_0215","BENIGN PROSTATIC HYPERTROPHY",12/24/2013 0:00:00 AM,61,10/25/2013 0:00:00 AM
"01-703-1076",3,"CDISCPILOT01","ADAE","703","1076","VERBATIM_0164","HYPERCHOLESTEROLAEMIA","METABOLISM AND NUTRITION DISORDERS","MODERATE","N",0,"NONE","Y","N","N",,,,,,,,,,,,,,"Xanomeline High Dose","Xan_Hi",2,69,"65-80",2,"CAUCASIAN",1,"M","Y","Y","Y","N","MedDRA version 8.0 (partially masked by request of MSSO)","N","N","N","N","N","N","HLGT_0703","HLT_0025","HYPERCHOLESTEROLEMIA",12/24/2013 0:00:00 AM,61,10/25/2013 0:00:00 AM
"01-703-1076",4,"CDISCPILOT01","ADAE","703","1076","VERBATIM_1219","APPLICATION SITE PRURITUS","GENERAL DISORDERS AND ADMINISTRATION SITE CONDITIONS","MILD","N",0,"PROBABLE","Y","Y","Y",,1,1,,,,1,11/23/2013 0:00:00 AM,,30,30,,,"Xanomeline High Dose","Xan_Hi",2,69,"65-80",2,"CAUCASIAN",1,"M","Y","Y","Y","N","MedDRA version 8.0 (partially masked by request of MSSO)","N","N","N","N","N","N","HLGT_0338","HLT_0317","APPLICATION SITE ITCHING",12/24/2013 0:00:00 AM,61,10/25/2013 0:00:00 AM
"01-703-1076",5,"CDISCPILOT01","ADAE","703","1076","VERBATIM_1298","APPLICATION SITE DERMATITIS","GENERAL DISORDERS AND ADMINISTRATION SITE CONDITIONS","MILD","N",0,"PROBABLE","Y","Y","Y",,,1,,,,1,11/23/2013 0:00:00 AM,,30,30,,,"Xanomeline High Dose","Xan_Hi",2,69,"65-80",2,"CAUCASIAN",1,"M","Y","Y","Y","N","MedDRA version 8.0 (partially masked by request of MSSO)","N","N","N","N","N","N","HLGT_0241","HLT_0343","APPLICATION SITE RASH",12/24/2013 0:00:00 AM,61,10/25/2013 0:00:00 AM
"01-703-1076",6,"CDISCPILOT01","ADAE","703","1076","VERBATIM_1343","HYPERHIDROSIS","SKIN AND SUBCUTANEOUS TISSUE DISORDERS","MILD","N",0,"POSSIBLE","Y","Y","Y",,1,1,,,,,11/25/2013 0:00:00 AM,,32,32,,,"Xanomeline High Dose","Xan_Hi",2,69,"65-80",2,"CAUCASIAN",1,"M","Y","Y","Y","N","MedDRA version 8.0 (partially masked by request of MSSO)","N","N","N","N","N","N","HLGT_0005","HLT_0587","SWEATING",12/24/2013 0:00:00 AM,61,10/25/2013 0:00:00 AM
"01-703-1076",7,"CDISCPILOT01","ADAE","703","1076","VERBATIM_1219","APPLICATION SITE PRURITUS","GENERAL DISORDERS AND ADMINISTRATION SITE CONDITIONS","MODERATE","N",0,"PROBABLE","Y","Y","Y",,,,,,,1,11/23/2013 0:00:00 AM,,30,30,,,"Xanomeline High Dose","Xan_Hi",2,69,"65-80",2,"CAUCASIAN",1,"M","Y","Y","Y","N","MedDRA version 8.0 (partially masked by request of MSSO)","N","N","N","N","N","N","HLGT_0338","HLT_0317","APPLICATION SITE ITCHING",12/24/2013 0:00:00 AM,61,10/25/2013 0:00:00 AM
"01-703-1086",1,"CDISCPILOT01","ADAE","703","1086","VERBATIM_1336","APPLICATION SITE IRRITATION","GENERAL DISORDERS AND ADMINISTRATION SITE CONDITIONS","MILD","N",0,"PROBABLE","Y","Y","Y",1,1,1,,,,1,9/13/2012 0:00:00 AM,,12,12,1/2/2013 0:00:00 AM,123,"Xanomeline Low Dose","Xan_Lo",1,71,"65-80",2,"CAUCASIAN",1,"M","Y","Y","Y","N","MedDRA version 8.0 (partially masked by request of MSSO)","N","N","N","N","N","N","HLGT_0346","HLT_0061","APPLICATION SITE IRRITATION",12/4/2012 0:00:00 AM,94,9/2/2012 0:00:00 AM
"01-703-1086",2,"CDISCPILOT01","ADAE","703","1086","VERBATIM_1336","APPLICATION SITE IRRITATION","GENERAL DISORDERS AND ADMINISTRATION SITE CONDITIONS","MODERATE","N",0,"PROBABLE","Y","Y","Y",,,,,,,1,9/13/2012 0:00:00 AM,,12,12,1/2/2013 0:00:00 AM,123,"Xanomeline Low Dose","Xan_Lo",1,71,"65-80",2,"CAUCASIAN",1,"M","Y","Y","Y","N","MedDRA version 8.0 (partially masked by request of MSSO)","N","N","N","N","N","N","HLGT_0346","HLT_0061","APPLICATION SITE IRRITATION",12/4/2012 0:00:00 AM,94,9/2/2012 0:00:00 AM
"01-703-1086",3,"CDISCPILOT01","ADAE","703","1086","VERBATIM_1336","APPLICATION SITE IRRITATION","GENERAL DISORDERS AND ADMINISTRATION SITE CONDITIONS","SEVERE","N",0,"PROBABLE","Y","Y","Y",,,,,,,1,9/13/2012 0:00:00 AM,,12,12,1/2/2013 0:00:00 AM,123,"Xanomeline Low Dose","Xan_Lo",1,71,"65-80",2,"CAUCASIAN",1,"M","Y","Y","Y","N","MedDRA version 8.0 (partially masked by request of MSSO)","N","N","N","N","N","N","HLGT_0346","HLT_0061","APPLICATION SITE IRRITATION",12/4/2012 0:00:00 AM,94,9/2/2012 0:00:00 AM
"01-703-1086",4,"CDISCPILOT01","ADAE","703","1086","VERBATIM_1398","CHILLS","GENERAL DISORDERS AND ADMINISTRATION SITE CONDITIONS","MILD","N",0,"POSSIBLE","Y","Y","Y",,,1,,,,,10/9/2012 0:00:00 AM,,38,38,10/15/2012 0:00:00 AM,44,"Xanomeline Low Dose","Xan_Lo",1,71,"65-80",2,"CAUCASIAN",1,"M","Y","Y","Y","N","MedDRA version 8.0 (partially masked by request of MSSO)","N","N","N","N","N","N","HLGT_0161","HLT_0586","CHILLS",12/4/2012 0:00:00 AM,94,9/2/2012 0:00:00 AM
"01-703-1086",5,"CDISCPILOT01","ADAE","703","1086","VERBATIM_1398","CHILLS","GENERAL DISORDERS AND ADMINISTRATION SITE CONDITIONS","MILD","N",0,"POSSIBLE","Y","Y","Y",,,,,,,,10/9/2012 0:00:00 AM,,38,38,10/15/2012 0:00:00 AM,44,"Xanomeline Low Dose","Xan_Lo",1,71,"65-80",2,"CAUCASIAN",1,"M","Y","Y","Y","N","MedDRA version 8.0 (partially masked by request of MSSO)","N","N","N","N","N","N","HLGT_0161","HLT_0586","CHILLS",12/4/2012 0:00:00 AM,94,9/2/2012 0:00:00 AM
"01-703-1086",6,"CDISCPILOT01","ADAE","703","1086","VERBATIM_1336","APPLICATION SITE IRRITATION","GENERAL DISORDERS AND ADMINISTRATION SITE CONDITIONS","MILD","N",0,"PROBABLE","Y","Y","Y",,,,,,,1,9/13/2012 0:00:00 AM,,12,12,1/2/2013 0:00:00 AM,123,"Xanomeline Low Dose","Xan_Lo",1,71,"65-80",2,"CAUCASIAN",1,"M","Y","Y","Y","N","MedDRA version 8.0 (partially masked by request of MSSO)","N","N","N","N","N","N","HLGT_0346","HLT_0061","APPLICATION SITE IRRITATION",12/4/2012 0:00:00 AM,94,9/2/2012 0:00:00 AM
"01-703-1100",1,"CDISCPILOT01","ADAE","703","1100","VERBATIM_0583","APPLICATION SITE IRRITATION","GENERAL DISORDERS AND ADMINISTRATION SITE CONDITIONS","MODERATE","N",0,"PROBABLE",,"Y","Y",1,1,1,,,,1,4/5/2013 0:00:00 AM,,24,24,4/16/2013 0:00:00 AM,35,"Placebo","Pbo",0,84,">80",3,"CAUCASIAN",1,"F","Y","Y","Y","Y","MedDRA version 8.0 (partially masked by request of MSSO)","N","N","N","N","N","N","HLGT_0346","HLT_0061","APPLICATION SITE IRRITATION",9/14/2013 0:00:00 AM,186,3/13/2013 0:00:00 AM
"01-703-1100",2,"CDISCPILOT01","ADAE","703","1100","VERBATIM_0583","APPLICATION SITE IRRITATION","GENERAL DISORDERS AND ADMINISTRATION SITE CONDITIONS","MILD","N",0,"PROBABLE",,"Y","Y",,,,,,,1,4/5/2013 0:00:00 AM,,24,24,4/16/2013 0:00:00 AM,35,"Placebo","Pbo",0,84,">80",3,"CAUCASIAN",1,"F","Y","Y","Y","Y","MedDRA version 8.0 (partially masked by request of MSSO)","N","N","N","N","N","N","HLGT_0346","HLT_0061","APPLICATION SITE IRRITATION",9/14/2013 0:00:00 AM,186,3/13/2013 0:00:00 AM
"01-703-1100",3,"CDISCPILOT01","ADAE","703","1100","VERBATIM_0583","APPLICATION SITE IRRITATION","GENERAL DISORDERS AND ADMINISTRATION SITE CONDITIONS","MILD","N",0,"PROBABLE",,"Y","Y",,,,,,,1,4/5/2013 0:00:00 AM,,24,24,4/16/2013 0:00:00 AM,35,"Placebo","Pbo",0,84,">80",3,"CAUCASIAN",1,"F","Y","Y","Y","Y","MedDRA version 8.0 (partially masked by request of MSSO)","N","N","N","N","N","N","HLGT_0346","HLT_0061","APPLICATION SITE IRRITATION",9/14/2013 0:00:00 AM,186,3/13/2013 0:00:00 AM
"01-703-1100",4,"CDISCPILOT01","ADAE","703","1100","VERBATIM_1581","CATARACT OPERATION","SURGICAL AND MEDICAL PROCEDURES","MODERATE","N",0,"NONE",,"Y","Y",,1,1,,,,,4/25/2013 0:00:00 AM,,44,44,4/25/2013 0:00:00 AM,44,"Placebo","Pbo",0,84,">80",3,"CAUCASIAN",1,"F","Y","Y","Y","Y","MedDRA version 8.0 (partially masked by request of MSSO)","N","N","N","N","N","N","HLGT_0058","HLT_0432","CATARACT EXTRACTION",9/14/2013 0:00:00 AM,186,3/13/2013 0:00:00 AM
"01-703-1100",5,"CDISCPILOT01","ADAE","703","1100","VERBATIM_0579","UPPER RESPIRATORY TRACT INFECTION","INFECTIONS AND INFESTATIONS","MODERATE","N",0,"REMOTE",,"Y","Y",,1,1,,,,,5/27/2013 0:00:00 AM,,76,76,6/3/2013 0:00:00 AM,83,"Placebo","Pbo",0,84,">80",3,"CAUCASIAN",1,"F","Y","Y","Y","Y","MedDRA version 8.0 (partially masked by request of MSSO)","N","N","N","N","N","N","HLGT_0489","HLT_0520","UPPER RESPIRATORY INFECTION",9/14/2013 0:00:00 AM,186,3/13/2013 0:00:00 AM
"01-703-1100",6,"CDISCPILOT01","ADAE","703","1100","VERBATIM_1652","OEDEMA PERIPHERAL","GENERAL DISORDERS AND ADMINISTRATION SITE CONDITIONS","MODERATE","N",0,"REMOTE",,"N","N",,,,,,,,2/28/2013 0:00:00 AM,,-13,-12,9/14/2013 0:00:00 AM,186,"Placebo","Pbo",0,84,">80",3,"CAUCASIAN",1,"F","Y","Y","Y","Y","MedDRA version 8.0 (partially masked by request of MSSO)","N","N","N","N","N","N","HLGT_0137","HLT_0661","LEG EDEMA",9/14/2013 0:00:00 AM,186,3/13/2013 0:00:00 AM
"01-703-1100",7,"CDISCPILOT01","ADAE","703","1100","VERBATIM_0098","OEDEMA PERIPHERAL","GENERAL DISORDERS AND ADMINISTRATION SITE CONDITIONS","MILD","N",0,"REMOTE",,"Y","Y",,,1,,,,,7/17/2013 0:00:00 AM,,127,127,9/14/2013 0:00:00 AM,186,"Placebo","Pbo",0,84,">80",3,"CAUCASIAN",1,"F","Y","Y","Y","Y","MedDRA version 8.0 (partially masked by request of MSSO)","N","N","N","N","N","N","HLGT_0137","HLT_0661","LEG EDEMA",9/14/2013 0:00:00 AM,186,3/13/2013 0:00:00 AM
"01-703-1100",8,"CDISCPILOT01","ADAE","703","1100","VERBATIM_1652","OEDEMA PERIPHERAL","GENERAL DISORDERS AND ADMINISTRATION SITE CONDITIONS","MODERATE","N",0,"REMOTE",,"N","N",,,,,,,,2/28/2013 0:00:00 AM,,-13,-12,9/14/2013 0:00:00 AM,186,"Placebo","Pbo",0,84,">80",3,"CAUCASIAN",1,"F","Y","Y","Y","Y","MedDRA version 8.0 (partially masked by request of MSSO)","N","N","N","N","N","N","HLGT_0137","HLT_0661","LEG EDEMA",9/14/2013 0:00:00 AM,186,3/13/2013 0:00:00 AM
"01-703-1100",9,"CDISCPILOT01","ADAE","703","1100","VERBATIM_0098","OEDEMA PERIPHERAL","GENERAL DISORDERS AND ADMINISTRATION SITE CONDITIONS","MILD","N",0,"REMOTE",,"Y","Y",,,,,,,,7/17/2013 0:00:00 AM,,127,127,9/14/2013 0:00:00 AM,186,"Placebo","Pbo",0,84,">80",3,"CAUCASIAN",1,"F","Y","Y","Y","Y","MedDRA version 8.0 (partially masked by request of MSSO)","N","N","N","N","N","N","HLGT_0137","HLT_0661","LEG EDEMA",9/14/2013 0:00:00 AM,186,3/13/2013 0:00:00 AM
"01-703-1119",1,"CDISCPILOT01","ADAE","703","1119","VERBATIM_1336","APPLICATION SITE IRRITATION","GENERAL DISORDERS AND ADMINISTRATION SITE CONDITIONS","MODERATE","N",0,"PROBABLE","Y","Y","Y",1,1,1,,,,1,3/16/2013 0:00:00 AM,,25,25,,,"Xanomeline Low Dose","Xan_Lo",1,81,">80",3,"CAUCASIAN",1,"F","Y","Y","Y","N","MedDRA version 8.0 (partially masked by request of MSSO)","N","N","N","N","N","N","HLGT_0346","HLT_0061","APPLICATION SITE IRRITATION",6/13/2013 0:00:00 AM,114,2/20/2013 0:00:00 AM
"01-703-1119",2,"CDISCPILOT01","ADAE","703","1119","VERBATIM_1336","APPLICATION SITE IRRITATION","GENERAL DISORDERS AND ADMINISTRATION SITE CONDITIONS","SEVERE","N",0,"PROBABLE","Y","Y","Y",,,,,,,1,3/16/2013 0:00:00 AM,,25,25,,,"Xanomeline Low Dose","Xan_Lo",1,81,">80",3,"CAUCASIAN",1,"F","Y","Y","Y","N","MedDRA version 8.0 (partially masked by request of MSSO)","N","N","N","N","N","N","HLGT_0346","HLT_0061","APPLICATION SITE IRRITATION",6/13/2013 0:00:00 AM,114,2/20/2013 0:00:00 AM
"01-703-1119",3,"CDISCPILOT01","ADAE","703","1119","VERBATIM_0216","PRURITUS","SKIN AND SUBCUTANEOUS TISSUE DISORDERS","MODERATE","N",0,"PROBABLE","Y","Y","Y",,1,1,,,,1,5/4/2013 0:00:00 AM,,74,74,,,"Xanomeline Low Dose","Xan_Lo",1,81,">80",3,"CAUCASIAN",1,"F","Y","Y","Y","N","MedDRA version 8.0 (partially masked by request of MSSO)","N","N","N","N","N","N","HLGT_0695","HLT_0778","ITCHING",6/13/2013 0:00:00 AM,114,2/20/2013 0:00:00 AM
"01-703-1119",4,"CDISCPILOT01","ADAE","703","1119","VERBATIM_0216","PRURITUS","SKIN AND SUBCUTANEOUS TISSUE DISORDERS","SEVERE","N",0,"PROBABLE","Y","Y","Y",,,,,,,1,5/4/2013 0:00:00 AM,,74,74,,,"Xanomeline Low Dose","Xan_Lo",1,81,">80",3,"CAUCASIAN",1,"F","Y","Y","Y","N","MedDRA version 8.0 (partially masked by request of MSSO)","N","N","N","N","N","N","HLGT_0695","HLT_0778","ITCHING",6/13/2013 0:00:00 AM,114,2/20/2013 0:00:00 AM
"01-703-1175",1,"CDISCPILOT01","ADAE","703","1175","VERBATIM_0077","ATRIOVENTRICULAR BLOCK SECOND DEGREE","CARDIAC DISORDERS","SEVERE","N",0,"NONE",,"N","N",,,,,,,,12/18/2013 0:00:00 AM,,-2,-1,,,"Placebo","Pbo",0,75,"65-80",2,"CAUCASIAN",1,"M","Y","Y","Y","N","MedDRA version 8.0 (partially masked by request of MSSO)","N","N","N","N","N","N","HLGT_0086","HLT_0415","HEART BLOCK SECOND DEGREE",12/26/2013 0:00:00 AM,7,12/20/2013 0:00:00 AM
"01-703-1182",1,"CDISCPILOT01","ADAE","703","1182","VERBATIM_1489","APPLICATION SITE ERYTHEMA","GENERAL DISORDERS AND ADMINISTRATION SITE CONDITIONS","MILD","N",0,"POSSIBLE","Y","Y","Y",1,1,1,,,,1,10/31/2013 0:00:00 AM,,15,15,,,"Xanomeline Low Dose","Xan_Lo",1,84,">80",3,"CAUCASIAN",1,"M","Y","Y","Y","N","MedDRA version 8.0 (partially masked by request of MSSO)","N","N","N","N","N","N","HLGT_0152","HLT_0617","APPLICATION SITE REDNESS",12/11/2013 0:00:00 AM,56,10/17/2013 0:00:00 AM
"01-703-1182",2,"CDISCPILOT01","ADAE","703","1182","VERBATIM_1489","APPLICATION SITE ERYTHEMA","GENERAL DISORDERS AND ADMINISTRATION SITE CONDITIONS","MODERATE","N",0,"POSSIBLE","Y","Y","Y",,,,,,,1,10/31/2013 0:00:00 AM,,15,15,,,"Xanomeline Low Dose","Xan_Lo",1,84,">80",3,"CAUCASIAN",1,"M","Y","Y","Y","N","MedDRA version 8.0 (partially masked by request of MSSO)","N","N","N","N","N","N","HLGT_0152","HLT_0617","APPLICATION SITE REDNESS",12/11/2013 0:00:00 AM,56,10/17/2013 0:00:00 AM
"01-703-1182",3,"CDISCPILOT01","ADAE","703","1182","VERBATIM_0485","SOMNOLENCE","NERVOUS SYSTEM DISORDERS","MILD","N",0,"REMOTE","Y","Y","Y",,1,1,,,,,11/22/2013 0:00:00 AM,,37,37,,,"Xanomeline Low Dose","Xan_Lo",1,84,">80",3,"CAUCASIAN",1,"M","Y","Y","Y","N","MedDRA version 8.0 (partially masked by request of MSSO)","N","N","N","N","N","N","HLGT_0254","HLT_0160","DROWSINESS",12/11/2013 0:00:00 AM,56,10/17/2013 0:00:00 AM
"01-703-1182",4,"CDISCPILOT01","ADAE","703","1182","VERBATIM_0485","SOMNOLENCE","NERVOUS SYSTEM DISORDERS","MODERATE","N",0,"REMOTE","Y","Y","Y",,,,,,,,11/22/2013 0:00:00 AM,,37,37,,,"Xanomeline Low Dose","Xan_Lo",1,84,">80",3,"CAUCASIAN",1,"M","Y","Y","Y","N","MedDRA version 8.0 (partially masked by request of MSSO)","N","N","N","N","N","N","HLGT_0254","HLT_0160","DROWSINESS",12/11/2013 0:00:00 AM,56,10/17/2013 0:00:00 AM
"01-703-1210",1,"CDISCPILOT01","ADAE","703","1210","VERBATIM_0787","DISORIENTATION","PSYCHIATRIC DISORDERS","MILD","N",0,"REMOTE",,"Y","Y",1,1,1,,,,,4/2/2013 0:00:00 AM,,18,18,,,"Placebo","Pbo",0,72,"65-80",2,"CAUCASIAN",1,"F","Y","Y","Y","Y","MedDRA version 8.0 (partially masked by request of MSSO)","N","N","N","N","N","N","HLGT_0307","HLT_0299","DISORIENTATION",9/6/2013 0:00:00 AM,175,3/16/2013 0:00:00 AM
"01-703-1210",2,"CDISCPILOT01","ADAE","703","1210","VERBATIM_0965","DECREASED APPETITE","METABOLISM AND NUTRITION DISORDERS","MILD","N",0,"POSSIBLE",,"Y","Y",,1,1,,,,,5/4/2013 0:00:00 AM,,50,50,,,"Placebo","Pbo",0,72,"65-80",2,"CAUCASIAN",1,"F","Y","Y","Y","Y","MedDRA version 8.0 (partially masked by request of MSSO)","N","N","N","N","N","N","HLGT_0231","HLT_0574","DECREASED APPETITE",9/6/2013 0:00:00 AM,175,3/16/2013 0:00:00 AM
"01-703-1210",3,"CDISCPILOT01","ADAE","703","1210","VERBATIM_0965","DECREASED APPETITE","METABOLISM AND NUTRITION DISORDERS","MODERATE","N",0,"POSSIBLE",,"Y","Y",,,,,,,,5/4/2013 0:00:00 AM,,50,50,,,"Placebo","Pbo",0,72,"65-80",2,"CAUCASIAN",1,"F","Y","Y","Y","Y","MedDRA version 8.0 (partially masked by request of MSSO)","N","N","N","N","N","N","HLGT_0231","HLT_0574","DECREASED APPETITE",9/6/2013 0:00:00 AM,175,3/16/2013 0:00:00 AM
"01-703-1258",1,"CDISCPILOT01","ADAE","703","1258","VERBATIM_0579","UPPER RESPIRATORY TRACT INFECTION","INFECTIONS AND INFESTATIONS","MILD","N",0,"NONE","Y","Y","Y",1,1,1,,,,,8/11/2012 0:00:00 AM,,23,23,8/19/2012 0:00:00 AM,31,"Xanomeline High Dose","Xan_Hi",2,78,"65-80",2,"CAUCASIAN",1,"F","Y","Y","Y","Y","MedDRA version 8.0 (partially masked by request of MSSO)","N","N","N","N","N","N","HLGT_0489","HLT_0520","UPPER RESPIRATORY INFECTION",1/11/2013 0:00:00 AM,176,7/20/2012 0:00:00 AM
"01-703-1258",2,"CDISCPILOT01","ADAE","703","1258","VERBATIM_1533","DIZZINESS","NERVOUS SYSTEM DISORDERS","MODERATE","N",0,"NONE","Y","N","N",,,,,,,,,,,,,,"Xanomeline High Dose","Xan_Hi",2,78,"65-80",2,"CAUCASIAN",1,"F","Y","Y","Y","Y","MedDRA version 8.0 (partially masked by request of MSSO)","N","N","N","N","N","N","HLGT_0751","HLT_0619","DIZZINESS",1/11/2013 0:00:00 AM,176,7/20/2012 0:00:00 AM
"01-703-1258",3,"CDISCPILOT01","ADAE","703","1258","VERBATIM_0579","UPPER RESPIRATORY TRACT INFECTION","INFECTIONS AND INFESTATIONS","MILD","N",0,"NONE","Y","Y","Y",,,,,,,,8/11/2012 0:00:00 AM,,23,23,8/19/2012 0:00:00 AM,31,"Xanomeline High Dose","Xan_Hi",2,78,"65-80",2,"CAUCASIAN",1,"F","Y","Y","Y","Y","MedDRA version 8.0 (partially masked by request of MSSO)","N","N","N","N","N","N","HLGT_0489","HLT_0520","UPPER RESPIRATORY INFECTION",1/11/2013 0:00:00 AM,176,7/20/2012 0:00:00 AM
"01-703-1258",4,"CDISCPILOT01","ADAE","703","1258","VERBATIM_1298","APPLICATION SITE DERMATITIS","GENERAL DISORDERS AND ADMINISTRATION SITE CONDITIONS","MILD","N",0,"PROBABLE","Y","Y","Y",,1,1,,,,1,9/4/2012 0:00:00 AM,,47,47,1/25/2013 0:00:00 AM,190,"Xanomeline High Dose","Xan_Hi",2,78,"65-80",2,"CAUCASIAN",1,"F","Y","Y","Y","Y","MedDRA version 8.0 (partially masked by request of MSSO)","N","N","N","N","N","N","HLGT_0241","HLT_0343","APPLICATION SITE RASH",1/11/2013 0:00:00 AM,176,7/20/2012 0:00:00 AM
"01-703-1258",5,"CDISCPILOT01","ADAE","703","1258","VERBATIM_1533","DIZZINESS","NERVOUS SYSTEM DISORDERS","MILD","N",0,"NONE","Y","N","N",,,,,,,,,,,,,,"Xanomeline High Dose","Xan_Hi",2,78,"65-80",2,"CAUCASIAN",1,"F","Y","Y","Y","Y","MedDRA version 8.0 (partially masked by request of MSSO)","N","N","N","N","N","N","HLGT_0751","HLT_0619","DIZZINESS",1/11/2013 0:00:00 AM,176,7/20/2012 0:00:00 AM
"01-703-1258",6,"CDISCPILOT01","ADAE","703","1258","VERBATIM_1298","APPLICATION SITE DERMATITIS","GENERAL DISORDERS AND ADMINISTRATION SITE CONDITIONS","MODERATE","N",0,"PROBABLE","Y","Y","Y",,,,,,,1,9/4/2012 0:00:00 AM,,47,47,1/25/2013 0:00:00 AM,190,"Xanomeline High Dose","Xan_Hi",2,78,"65-80",2,"CAUCASIAN",1,"F","Y","Y","Y","Y","MedDRA version 8.0 (partially masked by request of MSSO)","N","N","N","N","N","N","HLGT_0241","HLT_0343","APPLICATION SITE RASH",1/11/2013 0:00:00 AM,176,7/20/2012 0:00:00 AM
"01-703-1258",7,"CDISCPILOT01","ADAE","703","1258","VERBATIM_1298","APPLICATION SITE DERMATITIS","GENERAL DISORDERS AND ADMINISTRATION SITE CONDITIONS","MILD","N",0,"PROBABLE","Y","Y","Y",,,,,,,1,9/4/2012 0:00:00 AM,,47,47,1/25/2013 0:00:00 AM,190,"Xanomeline High Dose","Xan_Hi",2,78,"65-80",2,"CAUCASIAN",1,"F","Y","Y","Y","Y","MedDRA version 8.0 (partially masked by request of MSSO)","N","N","N","N","N","N","HLGT_0241","HLT_0343","APPLICATION SITE RASH",1/11/2013 0:00:00 AM,176,7/20/2012 0:00:00 AM
"01-703-1295",1,"CDISCPILOT01","ADAE","703","1295","VERBATIM_0065","ARTHRITIS","MUSCULOSKELETAL AND CONNECTIVE TISSUE DISORDERS","MODERATE","N",0,"NONE",,"Y","Y",1,1,1,,,,,12/28/2013 0:00:00 AM,,38,38,,,"Xanomeline High Dose","Xan_Hi",2,88,">80",3,"CAUCASIAN",1,"F","Y","Y","Y","N","MedDRA version 8.0 (partially masked by request of MSSO)","N","N","N","N","N","N","HLGT_0587","HLT_0019","ARTHRITIS",4/19/2014 0:00:00 AM,150,11/21/2013 0:00:00 AM
"01-703-1299",1,"CDISCPILOT01","ADAE","703","1299","VERBATIM_0579","UPPER RESPIRATORY TRACT INFECTION","INFECTIONS AND INFESTATIONS","MILD","N",0,"NONE",,"Y","Y",1,1,1,,,,,9/27/2012 0:00:00 AM,,16,16,10/6/2012 0:00:00 AM,25,"Placebo","Pbo",0,81,">80",3,"CAUCASIAN",1,"F","Y","Y","Y","Y","MedDRA version 8.0 (partially masked by request of MSSO)","N","N","N","N","N","N","HLGT_0489","HLT_0520","UPPER RESPIRATORY INFECTION",3/13/2013 0:00:00 AM,183,9/12/2012 0:00:00 AM
"01-703-1299",2,"CDISCPILOT01","ADAE","703","1299","VERBATIM_0579","UPPER RESPIRATORY TRACT INFECTION","INFECTIONS AND INFESTATIONS","MILD","N",0,"NONE",,"Y","Y",,,,,,,,9/27/2012 0:00:00 AM,,16,16,10/6/2012 0:00:00 AM,25,"Placebo","Pbo",0,81,">80",3,"CAUCASIAN",1,"F","Y","Y","Y","Y","MedDRA version 8.0 (partially masked by request of MSSO)","N","N","N","N","N","N","HLGT_0489","HLT_0520","UPPER RESPIRATORY INFECTION",3/13/2013 0:00:00 AM,183,9/12/2012 0:00:00 AM
"01-703-1299",3,"CDISCPILOT01","ADAE","703","1299","VERBATIM_0308","GLAUCOMA","EYE DISORDERS","MODERATE","N",0,"NONE",,"N","N",,,,,,,,,,,,,,"Placebo","Pbo",0,81,">80",3,"CAUCASIAN",1,"F","Y","Y","Y","Y","MedDRA version 8.0 (partially masked by request of MSSO)","N","N","N","N","N","N","HLGT_0734","HLT_0556","GLAUCOMA",3/13/2013 0:00:00 AM,183,9/12/2012 0:00:00 AM
"01-703-1299",4,"CDISCPILOT01","ADAE","703","1299","VERBATIM_0677","HYPOTENSION","VASCULAR DISORDERS","MILD","N",0,"REMOTE",,"Y","Y",,1,1,,,,,3/1/2013 0:00:00 AM,,171,171,,,"Placebo","Pbo",0,81,">80",3,"CAUCASIAN",1,"F","Y","Y","Y","Y","MedDRA version 8.0 (partially masked by request of MSSO)","N","N","N","N","N","N","HLGT_0412","HLT_0761","HYPOTENSION",3/13/2013 0:00:00 AM,183,9/12/2012 0:00:00 AM
"01-703-1299",5,"CDISCPILOT01","ADAE","703","1299","VERBATIM_0231","TACHYCARDIA","CARDIAC DISORDERS","MILD","N",0,"REMOTE",,"Y","Y",,1,1,,,,,3/1/2013 0:00:00 AM,,171,171,,,"Placebo","Pbo",0,81,">80",3,"CAUCASIAN",1,"F","Y","Y","Y","Y","MedDRA version 8.0 (partially masked by request of MSSO)","N","N","N","N","N","N","HLGT_0574","HLT_0082","TACHYCARDIA",3/13/2013 0:00:00 AM,183,9/12/2012 0:00:00 AM
"01-703-1299",6,"CDISCPILOT01","ADAE","703","1299","VERBATIM_0677","HYPOTENSION","VASCULAR DISORDERS","MODERATE","N",0,"REMOTE",,"Y","Y",,,,,,,,3/1/2013 0:00:00 AM,,171,171,,,"Placebo","Pbo",0,81,">80",3,"CAUCASIAN",1,"F","Y","Y","Y","Y","MedDRA version 8.0 (partially masked by request of MSSO)","N","N","N","N","N","N","HLGT_0412","HLT_0761","HYPOTENSION",3/13/2013 0:00:00 AM,183,9/12/2012 0:00:00 AM
"01-703-1299",7,"CDISCPILOT01","ADAE","703","1299","VERBATIM_0231","TACHYCARDIA","CARDIAC DISORDERS","MODERATE","N",0,"REMOTE",,"Y","Y",,,,,,,,3/1/2013 0:00:00 AM,,171,171,,,"Placebo","Pbo",0,81,">80",3,"CAUCASIAN",1,"F","Y","Y","Y","Y","MedDRA version 8.0 (partially masked by request of MSSO)","N","N","N","N","N","N","HLGT_0574","HLT_0082","TACHYCARDIA",3/13/2013 0:00:00 AM,183,9/12/2012 0:00:00 AM
"01-703-1299",8,"CDISCPILOT01","ADAE","703","1299","VERBATIM_1262","MYOCARDIAL INFARCTION","CARDIAC DISORDERS","MODERATE","N",0,"REMOTE",,"Y","Y",,,1,,,,,3/13/2013 0:00:00 AM,,183,183,,,"Placebo","Pbo",0,81,">80",3,"CAUCASIAN",1,"F","Y","Y","Y","Y","MedDRA version 8.0 (partially masked by request of MSSO)","N","N","N","N","N","N","HLGT_0688","HLT_0649","MYOCARDIAL INFARCTION",3/13/2013 0:00:00 AM,183,9/12/2012 0:00:00 AM
"01-703-1335",1,"CDISCPILOT01","ADAE","703","1335","VERBATIM_1650","ATRIOVENTRICULAR BLOCK SECOND DEGREE","CARDIAC DISORDERS","MILD","N",0,"NONE",,"N","N",,,,,,,,3/15/2014 0:00:00 AM,,-2,-1,3/30/2014 0:00:00 AM,14,"Xanomeline High Dose","Xan_Hi",2,67,"65-80",2,"AFRICAN DESCENT (NEGRO, BLACK)",2,"F","Y","Y","Y","N","MedDRA version 8.0 (partially masked by request of MSSO)","N","N","N","N","N","N","HLGT_0086","HLT_0415","AV BLOCK SECOND DEGREE",5/7/2014 0:00:00 AM,52,3/17/2014 0:00:00 AM
"01-703-1335",2,"CDISCPILOT01","ADAE","703","1335","VERBATIM_1650","ATRIOVENTRICULAR BLOCK SECOND DEGREE","CARDIAC DISORDERS","MILD","N",0,"NONE",,"N","N",,,,,,,,3/15/2014 0:00:00 AM,,-2,-1,3/30/2014 0:00:00 AM,14,"Xanomeline High Dose","Xan_Hi",2,67,"65-80",2,"AFRICAN DESCENT (NEGRO, BLACK)",2,"F","Y","Y","Y","N","MedDRA version 8.0 (partially masked by request of MSSO)","N","N","N","N","N","N","HLGT_0086","HLT_0415","AV BLOCK SECOND DEGREE",5/7/2014 0:00:00 AM,52,3/17/2014 0:00:00 AM
"01-703-1403",1,"CDISCPILOT01","ADAE","703","1403","VERBATIM_0293","WEIGHT DECREASED","INVESTIGATIONS","MODERATE","N",0,"NONE","Y","Y","Y",1,1,1,,,,,12/12/2012 0:00:00 AM,,1,1,12/19/2012 0:00:00 AM,8,"Xanomeline High Dose","Xan_Hi",2,67,"65-80",2,"CAUCASIAN",1,"M","Y","Y","N","N","MedDRA version 8.0 (partially masked by request of MSSO)","N","N","N","N","N","N","HLGT_0778","HLT_0158","WEIGHT LOSS",12/13/2012 0:00:00 AM,2,12/12/2012 0:00:00 AM
"01-703-1403",2,"CDISCPILOT01","ADAE","703","1403","VERBATIM_1126","DIARRHOEA","GASTROINTESTINAL DISORDERS","MODERATE","N",0,"PROBABLE","Y","Y","Y",,1,1,,,,,12/13/2012 0:00:00 AM,,2,2,12/14/2012 0:00:00 AM,3,"Xanomeline High Dose","Xan_Hi",2,67,"65-80",2,"CAUCASIAN",1,"M","Y","Y","N","N","MedDRA version 8.0 (partially masked by request of MSSO)","N","N","N","N","N","N","HLGT_0588","HLT_0148","DIARRHEA",12/13/2012 0:00:00 AM,2,12/12/2012 0:00:00 AM
"01-703-1403",3,"CDISCPILOT01","ADAE","703","1403","VERBATIM_0897","VOMITING","GASTROINTESTINAL DISORDERS","MODERATE","N",0,"PROBABLE","Y","Y","Y",,,1,,,,,12/13/2012 0:00:00 AM,,2,2,12/14/2012 0:00:00 AM,3,"Xanomeline High Dose","Xan_Hi",2,67,"65-80",2,"CAUCASIAN",1,"M","Y","Y","N","N","MedDRA version 8.0 (partially masked by request of MSSO)","N","N","N","N","N","N","HLGT_0350","HLT_0016","VOMITING",12/13/2012 0:00:00 AM,2,12/12/2012 0:00:00 AM
"01-703-1403",4,"CDISCPILOT01","ADAE","703","1403","VERBATIM_1293","CHEST DISCOMFORT","GENERAL DISORDERS AND ADMINISTRATION SITE CONDITIONS","MILD","N",0,"PROBABLE","Y","N","Y",,1,1,,,,,12/15/2012 0:00:00 AM,,4,4,12/16/2012 0:00:00 AM,5,"Xanomeline High Dose","Xan_Hi",2,67,"65-80",2,"CAUCASIAN",1,"M","Y","Y","N","N","MedDRA version 8.0 (partially masked by request of MSSO)","N","N","N","N","N","N","HLGT_0441","HLT_0593","CHEST TIGHTNESS",12/13/2012 0:00:00 AM,2,12/12/2012 0:00:00 AM
"01-703-1403",5,"CDISCPILOT01","ADAE","703","1403","VERBATIM_0293","WEIGHT DECREASED","INVESTIGATIONS","MODERATE","N",0,"NONE","Y","Y","Y",,,,,,,,12/12/2012 0:00:00 AM,,1,1,12/19/2012 0:00:00 AM,8,"Xanomeline High Dose","Xan_Hi",2,67,"65-80",2,"CAUCASIAN",1,"M","Y","Y","N","N","MedDRA version 8.0 (partially masked by request of MSSO)","N","N","N","N","N","N","HLGT_0778","HLT_0158","WEIGHT LOSS",12/13/2012 0:00:00 AM,2,12/12/2012 0:00:00 AM
"01-703-1439",1,"CDISCPILOT01","ADAE","703","1439","VERBATIM_0583","APPLICATION SITE IRRITATION","GENERAL DISORDERS AND ADMINISTRATION SITE CONDITIONS","MILD","N",0,"PROBABLE",,"Y","Y",1,1,1,,,,1,4/24/2014 0:00:00 AM,,44,44,,,"Xanomeline High Dose","Xan_Hi",2,76,"65-80",2,"CAUCASIAN",1,"F","Y","Y","Y","Y","MedDRA version 8.0 (partially masked by request of MSSO)","N","N","N","N","N","N","HLGT_0346","HLT_0061","APPLICATION SITE IRRITATION",9/11/2014 0:00:00 AM,184,3/12/2014 0:00:00 AM
"01-703-1439",2,"CDISCPILOT01","ADAE","703","1439","VERBATIM_0583","APPLICATION SITE IRRITATION","GENERAL DISORDERS AND ADMINISTRATION SITE CONDITIONS","MODERATE","N",0,"PROBABLE",,"Y","Y",,,,,,,1,4/24/2014 0:00:00 AM,,44,44,,,"Xanomeline High Dose","Xan_Hi",2,76,"65-80",2,"CAUCASIAN",1,"F","Y","Y","Y","Y","MedDRA version 8.0 (partially masked by request of MSSO)","N","N","N","N","N","N","HLGT_0346","HLT_0061","APPLICATION SITE IRRITATION",9/11/2014 0:00:00 AM,184,3/12/2014 0:00:00 AM
"01-704-1008",1,"CDISCPILOT01","ADAE","704","1008","VERBATIM_0895","HYPERHIDROSIS","SKIN AND SUBCUTANEOUS TISSUE DISORDERS","MILD","N",0,"POSSIBLE","Y","Y","Y",1,1,1,,,,,1/30/2013 0:00:00 AM,,18,18,,,"Xanomeline High Dose","Xan_Hi",2,76,"65-80",2,"CAUCASIAN",1,"F","Y","Y","Y","N","MedDRA version 8.0 (partially masked by request of MSSO)","N","N","N","N","N","N","HLGT_0005","HLT_0587","SWEATING INCREASED",2/21/2013 0:00:00 AM,40,1/13/2013 0:00:00 AM
"01-704-1008",2,"CDISCPILOT01","ADAE","704","1008","VERBATIM_1299","TRANSIENT ISCHAEMIC ATTACK","NERVOUS SYSTEM DISORDERS","SEVERE","N",0,"NONE","Y","Y","Y",,1,1,,,,,2/21/2013 0:00:00 AM,,40,40,2/21/2013 0:00:00 AM,40,"Xanomeline High Dose","Xan_Hi",2,76,"65-80",2,"CAUCASIAN",1,"F","Y","Y","Y","N","MedDRA version 8.0 (partially masked by request of MSSO)","N","N","N","N","Y","N","HLGT_0433","HLT_0041","TRANSIENT ISCHEMIC ATTACKS",2/21/2013 0:00:00 AM,40,1/13/2013 0:00:00 AM
"01-704-1008",3,"CDISCPILOT01","ADAE","704","1008","VERBATIM_0796","SINUS BRADYCARDIA","CARDIAC DISORDERS","MODERATE","N",0,"NONE","Y","N","Y",,1,1,,,,,2/25/2013 0:00:00 AM,,44,44,,,"Xanomeline High Dose","Xan_Hi",2,76,"65-80",2,"CAUCASIAN",1,"F","Y","Y","Y","N","MedDRA version 8.0 (partially masked by request of MSSO)","N","N","N","N","N","N","HLGT_0500","HLT_0644","SINUS BRADYCARDIA",2/21/2013 0:00:00 AM,40,1/13/2013 0:00:00 AM
"01-704-1009",1,"CDISCPILOT01","ADAE","704","1009","VERBATIM_0555","FATIGUE","GENERAL DISORDERS AND ADMINISTRATION SITE CONDITIONS","MILD","N",0,"REMOTE",,"Y","Y",1,1,1,,,,,9/5/2013 0:00:00 AM,,10,10,,,"Xanomeline Low Dose","Xan_Lo",1,83,">80",3,"CAUCASIAN",1,"M","Y","Y","Y","N","MedDRA version 8.0 (partially masked by request of MSSO)","N","N","N","N","N","N","HLGT_0181","HLT_0043","FATIGUE",9/25/2013 0:00:00 AM,30,8/27/2013 0:00:00 AM
"01-704-1009",2,"CDISCPILOT01","ADAE","704","1009","VERBATIM_1562","MALAISE","GENERAL DISORDERS AND ADMINISTRATION SITE CONDITIONS","MILD","N",0,"POSSIBLE",,"Y","Y",,,1,,,,,9/5/2013 0:00:00 AM,,10,10,9/27/2013 0:00:00 AM,32,"Xanomeline Low Dose","Xan_Lo",1,83,">80",3,"CAUCASIAN",1,"M","Y","Y","Y","N","MedDRA version 8.0 (partially masked by request of MSSO)","N","N","N","N","N","N","HLGT_0178","HLT_0456","MALAISE",9/25/2013 0:00:00 AM,30,8/27/2013 0:00:00 AM
"01-704-1009",3,"CDISCPILOT01","ADAE","704","1009","VERBATIM_1452","RASH","SKIN AND SUBCUTANEOUS TISSUE DISORDERS","MILD","N",0,"POSSIBLE",,"Y","Y",,1,1,,,,1,9/14/2013 0:00:00 AM,,19,19,,,"Xanomeline Low Dose","Xan_Lo",1,83,">80",3,"CAUCASIAN",1,"M","Y","Y","Y","N","MedDRA version 8.0 (partially masked by request of MSSO)","N","N","N","N","N","N","HLGT_0198","HLT_0762","RASH",9/25/2013 0:00:00 AM,30,8/27/2013 0:00:00 AM
"01-704-1009",4,"CDISCPILOT01","ADAE","704","1009","VERBATIM_1562","MALAISE","GENERAL DISORDERS AND ADMINISTRATION SITE CONDITIONS","MILD","N",0,"POSSIBLE",,"Y","Y",,,,,,,,9/5/2013 0:00:00 AM,,10,10,9/27/2013 0:00:00 AM,32,"Xanomeline Low Dose","Xan_Lo",1,83,">80",3,"CAUCASIAN",1,"M","Y","Y","Y","N","MedDRA version 8.0 (partially masked by request of MSSO)","N","N","N","N","N","N","HLGT_0178","HLT_0456","MALAISE",9/25/2013 0:00:00 AM,30,8/27/2013 0:00:00 AM
"01-704-1009",5,"CDISCPILOT01","ADAE","704","1009","VERBATIM_1533","DIZZINESS","NERVOUS SYSTEM DISORDERS","MILD","N",0,"REMOTE",,"Y","Y",,1,1,,,,,9/17/2013 0:00:00 AM,,22,22,,,"Xanomeline Low Dose","Xan_Lo",1,83,">80",3,"CAUCASIAN",1,"M","Y","Y","Y","N","MedDRA version 8.0 (partially masked by request of MSSO)","N","N","N","N","N","N","HLGT_0751","HLT_0619","DIZZINESS",9/25/2013 0:00:00 AM,30,8/27/2013 0:00:00 AM
"01-704-1009",6,"CDISCPILOT01","ADAE","704","1009","VERBATIM_0775","NAUSEA","GASTROINTESTINAL DISORDERS","MILD","N",0,"POSSIBLE",,"Y","Y",,1,1,,,,,9/22/2013 0:00:00 AM,,27,27,9/23/2013 0:00:00 AM,28,"Xanomeline Low Dose","Xan_Lo",1,83,">80",3,"CAUCASIAN",1,"M","Y","Y","Y","N","MedDRA version 8.0 (partially masked by request of MSSO)","N","N","N","N","N","N","HLGT_0326","HLT_0742","NAUSEA",9/25/2013 0:00:00 AM,30,8/27/2013 0:00:00 AM
"01-704-1010",1,"CDISCPILOT01","ADAE","704","1010","VERBATIM_0822","CYSTITIS","INFECTIONS AND INFESTATIONS","MILD","N",0,"NONE",,"Y","Y",1,1,1,,,,,2/27/2014 0:00:00 AM,,7,7,3/6/2014 0:00:00 AM,14,"Placebo","Pbo",0,80,"65-80",2,"CAUCASIAN",1,"M","Y","Y","Y","N","MedDRA version 8.0 (partially masked by request of MSSO)","N","N","N","N","N","N","HLGT_0129","HLT_0739","BLADDER INFECTION",7/8/2014 0:00:00 AM,138,2/21/2014 0:00:00 AM
"01-704-1010",2,"CDISCPILOT01","ADAE","704","1010","VERBATIM_0897","VOMITING","GASTROINTESTINAL DISORDERS","MILD","N",0,"NONE",,"Y","Y",,1,1,,,,,7/5/2014 0:00:00 AM,,135,135,7/6/2014 0:00:00 AM,136,"Placebo","Pbo",0,80,"65-80",2,"CAUCASIAN",1,"M","Y","Y","Y","N","MedDRA version 8.0 (partially masked by request of MSSO)","N","N","N","N","N","N","HLGT_0350","HLT_0016","VOMITING",7/8/2014 0:00:00 AM,138,2/21/2014 0:00:00 AM
"01-704-1010",3,"CDISCPILOT01","ADAE","704","1010","VERBATIM_1126","DIARRHOEA","GASTROINTESTINAL DISORDERS","MILD","N",0,"NONE",,"Y","Y",,,1,,,,,7/5/2014 0:00:00 AM,,135,135,7/6/2014 0:00:00 AM,136,"Placebo","Pbo",0,80,"65-80",2,"CAUCASIAN",1,"M","Y","Y","Y","N","MedDRA version 8.0 (partially masked by request of MSSO)","N","N","N","N","N","N","HLGT_0588","HLT_0148","DIARRHEA",7/8/2014 0:00:00 AM,138,2/21/2014 0:00:00 AM
"01-704-1010",4,"CDISCPILOT01","ADAE","704","1010","VERBATIM_0274","EXCORIATION","INJURY, POISONING AND PROCEDURAL COMPLICATIONS","MILD","N",0,"NONE",,"Y","Y",,1,1,,,,,7/6/2014 0:00:00 AM,,136,136,,,"Placebo","Pbo",0,80,"65-80",2,"CAUCASIAN",1,"M","Y","Y","Y","N","MedDRA version 8.0 (partially masked by request of MSSO)","N","N","N","N","N","N","HLGT_0511","HLT_0738","ABRASION NOS",7/8/2014 0:00:00 AM,138,2/21/2014 0:00:00 AM
"01-704-1010",5,"CDISCPILOT01","ADAE","704","1010","VERBATIM_1710","SKIN LACERATION","INJURY, POISONING AND PROCEDURAL COMPLICATIONS","MILD","N",0,"NONE",,"Y","Y",,,1,,,,,7/6/2014 0:00:00 AM,,136,136,,,"Placebo","Pbo",0,80,"65-80",2,"CAUCASIAN",1,"M","Y","Y","Y","N","MedDRA version 8.0 (partially masked by request of MSSO)","N","N","N","N","N","N","HLGT_0118","HLT_0075","SKIN TEAR",7/8/2014 0:00:00 AM,138,2/21/2014 0:00:00 AM
"01-704-1010",6,"CDISCPILOT01","ADAE","704","1010","VERBATIM_1396","ARTHRALGIA","MUSCULOSKELETAL AND CONNECTIVE TISSUE DISORDERS","MILD","N",0,"NONE",,"Y","Y",,1,1,,,,,7/6/2014 0:00:00 AM,,136,136,,,"Placebo","Pbo",0,80,"65-80",2,"CAUCASIAN",1,"M","Y","Y","Y","N","MedDRA version 8.0 (partially masked by request of MSSO)","N","N","N","N","N","N","HLGT_0610","HLT_0375","KNEE PAIN",7/8/2014 0:00:00 AM,138,2/21/2014 0:00:00 AM
"01-704-1010",7,"CDISCPILOT01","ADAE","704","1010","VERBATIM_0689","CONTUSION","INJURY, POISONING AND PROCEDURAL COMPLICATIONS","MILD","N",0,"NONE",,"Y","Y",,,1,,,,,7/6/2014 0:00:00 AM,,136,136,,,"Placebo","Pbo",0,80,"65-80",2,"CAUCASIAN",1,"M","Y","Y","Y","N","MedDRA version 8.0 (partially masked by request of MSSO)","N","N","N","N","N","N","HLGT_0381","HLT_0713","BRUISE OF HEAD",7/8/2014 0:00:00 AM,138,2/21/2014 0:00:00 AM
"01-704-1017",1,"CDISCPILOT01","ADAE","704","1017","VERBATIM_1635","MYOCARDIAL INFARCTION","CARDIAC DISORDERS","MILD","N",0,"NONE","Y","Y","Y",1,1,1,,,,,10/19/2013 0:00:00 AM,,14,14,,,"Xanomeline High Dose","Xan_Hi",2,77,"65-80",2,"CAUCASIAN",1,"M","Y","Y","Y","N","MedDRA version 8.0 (partially masked by request of MSSO)","N","N","N","N","N","N","HLGT_0688","HLT_0649","MYOCARDIAL INFARCTION",11/18/2013 0:00:00 AM,44,10/6/2013 0:00:00 AM
"01-704-1017",2,"CDISCPILOT01","ADAE","704","1017","VERBATIM_0888","VENTRICULAR SEPTAL DEFECT","CONGENITAL, FAMILIAL AND GENETIC DISORDERS","MILD","N",0,"NONE","Y","Y","Y",,1,1,,,,,10/19/2013 0:00:00 AM,,14,14,,,"Xanomeline High Dose","Xan_Hi",2,77,"65-80",2,"CAUCASIAN",1,"M","Y","Y","Y","N","MedDRA version 8.0 (partially masked by request of MSSO)","N","N","N","N","N","N","HLGT_0747","HLT_0589","VENTRICULAR SEPTAL DEFECT",11/18/2013 0:00:00 AM,44,10/6/2013 0:00:00 AM
"01-704-1017",3,"CDISCPILOT01","ADAE","704","1017","VERBATIM_1543","INFLUENZA","INFECTIONS AND INFESTATIONS","MILD","N",0,"NONE","Y","Y","Y",,1,1,,,,,11/1/2013 0:00:00 AM,,27,27,11/8/2013 0:00:00 AM,34,"Xanomeline High Dose","Xan_Hi",2,77,"65-80",2,"CAUCASIAN",1,"M","Y","Y","Y","N","MedDRA version 8.0 (partially masked by request of MSSO)","N","N","N","N","N","N","HLGT_0081","HLT_0125","FLU",11/18/2013 0:00:00 AM,44,10/6/2013 0:00:00 AM
"01-704-1017",4,"CDISCPILOT01","ADAE","704","1017","VERBATIM_1744","CARDIAC DISORDER","CARDIAC DISORDERS","MILD","N",0,"NONE","Y","Y","Y",,,1,,,,,11/1/2013 0:00:00 AM,,27,27,,,"Xanomeline High Dose","Xan_Hi",2,77,"65-80",2,"CAUCASIAN",1,"M","Y","Y","Y","N","MedDRA version 8.0 (partially masked by request of MSSO)","N","N","N","N","N","N","HLGT_0126","HLT_0507","CARDIAC DISORDER",11/18/2013 0:00:00 AM,44,10/6/2013 0:00:00 AM
"01-704-1017",5,"CDISCPILOT01","ADAE","704","1017","VERBATIM_1452","RASH","SKIN AND SUBCUTANEOUS TISSUE DISORDERS","MILD","N",0,"PROBABLE","Y","Y","Y",,1,1,,,,1,11/5/2013 0:00:00 AM,,31,31,11/22/2013 0:00:00 AM,48,"Xanomeline High Dose","Xan_Hi",2,77,"65-80",2,"CAUCASIAN",1,"M","Y","Y","Y","N","MedDRA version 8.0 (partially masked by request of MSSO)","N","N","N","N","N","N","HLGT_0198","HLT_0762","RASH",11/18/2013 0:00:00 AM,44,10/6/2013 0:00:00 AM
"01-704-1017",6,"CDISCPILOT01","ADAE","704","1017","VERBATIM_0216","PRURITUS","SKIN AND SUBCUTANEOUS TISSUE DISORDERS","MILD","N",0,"PROBABLE","Y","Y","Y",,,1,,,,1,11/5/2013 0:00:00 AM,,31,31,11/22/2013 0:00:00 AM,48,"Xanomeline High Dose","Xan_Hi",2,77,"65-80",2,"CAUCASIAN",1,"M","Y","Y","Y","N","MedDRA version 8.0 (partially masked by request of MSSO)","N","N","N","N","N","N","HLGT_0695","HLT_0778","ITCHING",11/18/2013 0:00:00 AM,44,10/6/2013 0:00:00 AM
"01-704-1017",7,"CDISCPILOT01","ADAE","704","1017","VERBATIM_1452","RASH","SKIN AND SUBCUTANEOUS TISSUE DISORDERS","MILD","N",0,"PROBABLE","Y","Y","Y",,,,,,,1,11/5/2013 0:00:00 AM,,31,31,11/22/2013 0:00:00 AM,48,"Xanomeline High Dose","Xan_Hi",2,77,"65-80",2,"CAUCASIAN",1,"M","Y","Y","Y","N","MedDRA version 8.0 (partially masked by request of MSSO)","N","N","N","N","N","N","HLGT_0198","HLT_0762","RASH",11/18/2013 0:00:00 AM,44,10/6/2013 0:00:00 AM
"01-704-1017",8,"CDISCPILOT01","ADAE","704","1017","VERBATIM_0216","PRURITUS","SKIN AND SUBCUTANEOUS TISSUE DISORDERS","MILD","N",0,"PROBABLE","Y","Y","Y",,,,,,,1,11/5/2013 0:00:00 AM,,31,31,11/22/2013 0:00:00 AM,48,"Xanomeline High Dose","Xan_Hi",2,77,"65-80",2,"CAUCASIAN",1,"M","Y","Y","Y","N","MedDRA version 8.0 (partially masked by request of MSSO)","N","N","N","N","N","N","HLGT_0695","HLT_0778","ITCHING",11/18/2013 0:00:00 AM,44,10/6/2013 0:00:00 AM
"01-704-1025",1,"CDISCPILOT01","ADAE","704","1025","VERBATIM_1703","VERTIGO","EAR AND LABYRINTH DISORDERS","MODERATE","N",0,"POSSIBLE","Y","Y","Y",1,1,1,,,,,9/28/2013 0:00:00 AM,,2,2,9/30/2013 0:00:00 AM,4,"Xanomeline Low Dose","Xan_Lo",1,81,">80",3,"CAUCASIAN",1,"F","Y","Y","Y","N","MedDRA version 8.0 (partially masked by request of MSSO)","N","N","N","N","N","N","HLGT_0147","HLT_0255","VERTIGO",10/24/2013 0:00:00 AM,28,9/27/2013 0:00:00 AM
"01-704-1025",2,"CDISCPILOT01","ADAE","704","1025","VERBATIM_0266","PALPITATIONS","CARDIAC DISORDERS","MODERATE","N",0,"REMOTE","Y","Y","Y",,1,1,,,,,9/28/2013 0:00:00 AM,,2,2,9/30/2013 0:00:00 AM,4,"Xanomeline Low Dose","Xan_Lo",1,81,">80",3,"CAUCASIAN",1,"F","Y","Y","Y","N","MedDRA version 8.0 (partially masked by request of MSSO)","N","N","N","N","N","N","HLGT_0593","HLT_0493","PALPITATIONS",10/24/2013 0:00:00 AM,28,9/27/2013 0:00:00 AM
"01-704-1025",3,"CDISCPILOT01","ADAE","704","1025","VERBATIM_1153","ELECTROCARDIOGRAM ST SEGMENT DEPRESSION","INVESTIGATIONS","MILD","N",0,"POSSIBLE","Y","Y","Y",,1,1,,,,,10/11/2013 0:00:00 AM,,15,15,10/25/2013 0:00:00 AM,29,"Xanomeline Low Dose","Xan_Lo",1,81,">80",3,"CAUCASIAN",1,"F","Y","Y","Y","N","MedDRA version 8.0 (partially masked by request of MSSO)","N","N","N","N","N","N","HLGT_0220","HLT_0610","ST SEGMENT DEPRESSED",10/24/2013 0:00:00 AM,28,9/27/2013 0:00:00 AM
"01-704-1025",4,"CDISCPILOT01","ADAE","704","1025","VERBATIM_1601","WOLFF-PARKINSON-WHITE SYNDROME","CARDIAC DISORDERS","MILD","N",0,"POSSIBLE","Y","N","Y",,,1,,,,,10/25/2013 0:00:00 AM,,29,29,11/29/2013 0:00:00 AM,64,"Xanomeline Low Dose","Xan_Lo",1,81,">80",3,"CAUCASIAN",1,"F","Y","Y","Y","N","MedDRA version 8.0 (partially masked by request of MSSO)","N","N","N","N","N","N","HLGT_0218","HLT_0612","WOLFF-PARKINSON-WHITE SYNDROME",10/24/2013 0:00:00 AM,28,9/27/2013 0:00:00 AM
"01-704-1025",5,"CDISCPILOT01","ADAE","704","1025","VERBATIM_1153","ELECTROCARDIOGRAM ST SEGMENT DEPRESSION","INVESTIGATIONS","MILD","N",0,"POSSIBLE","Y","Y","Y",,,,,,,,10/11/2013 0:00:00 AM,,15,15,10/25/2013 0:00:00 AM,29,"Xanomeline Low Dose","Xan_Lo",1,81,">80",3,"CAUCASIAN",1,"F","Y","Y","Y","N","MedDRA version 8.0 (partially masked by request of MSSO)","N","N","N","N","N","N","HLGT_0220","HLT_0610","ST SEGMENT DEPRESSED",10/24/2013 0:00:00 AM,28,9/27/2013 0:00:00 AM
"01-704-1025",6,"CDISCPILOT01","ADAE","704","1025","VERBATIM_1601","WOLFF-PARKINSON-WHITE SYNDROME","CARDIAC DISORDERS","MILD","N",0,"POSSIBLE","Y","N","Y",,,,,,,,10/25/2013 0:00:00 AM,,29,29,11/29/2013 0:00:00 AM,64,"Xanomeline Low Dose","Xan_Lo",1,81,">80",3,"CAUCASIAN",1,"F","Y","Y","Y","N","MedDRA version 8.0 (partially masked by request of MSSO)","N","N","N","N","N","N","HLGT_0218","HLT_0612","WOLFF-PARKINSON-WHITE SYNDROME",10/24/2013 0:00:00 AM,28,9/27/2013 0:00:00 AM
"01-704-1065",1,"CDISCPILOT01","ADAE","704","1065","VERBATIM_1040","ABDOMINAL DISCOMFORT","GASTROINTESTINAL DISORDERS","MILD","N",0,"REMOTE","Y","Y","Y",1,1,1,,,,,10/26/2013 0:00:00 AM,,3,3,,,"Xanomeline High Dose","Xan_Hi",2,75,"65-80",2,"CAUCASIAN",1,"M","Y","Y","Y","N","MedDRA version 8.0 (partially masked by request of MSSO)","N","N","N","N","N","N","HLGT_0332","HLT_0012","ABDOMINAL DISCOMFORT",12/22/2013 0:00:00 AM,60,10/24/2013 0:00:00 AM
"01-704-1065",2,"CDISCPILOT01","ADAE","704","1065","VERBATIM_1452","RASH","SKIN AND SUBCUTANEOUS TISSUE DISORDERS","MILD","N",0,"PROBABLE","Y","Y","Y",,1,1,,,,1,10/27/2013 0:00:00 AM,,4,4,,,"Xanomeline High Dose","Xan_Hi",2,75,"65-80",2,"CAUCASIAN",1,"M","Y","Y","Y","N","MedDRA version 8.0 (partially masked by request of MSSO)","N","N","N","N","N","N","HLGT_0198","HLT_0762","RASH",12/22/2013 0:00:00 AM,60,10/24/2013 0:00:00 AM
"01-704-1065",3,"CDISCPILOT01","ADAE","704","1065","VERBATIM_1219","APPLICATION SITE PRURITUS","GENERAL DISORDERS AND ADMINISTRATION SITE CONDITIONS","MODERATE","N",0,"PROBABLE","Y","Y","Y",,1,1,,,,1,10/27/2013 0:00:00 AM,,4,4,,,"Xanomeline High Dose","Xan_Hi",2,75,"65-80",2,"CAUCASIAN",1,"M","Y","Y","Y","N","MedDRA version 8.0 (partially masked by request of MSSO)","N","N","N","N","N","N","HLGT_0338","HLT_0317","APPLICATION SITE ITCHING",12/22/2013 0:00:00 AM,60,10/24/2013 0:00:00 AM
"01-704-1065",4,"CDISCPILOT01","ADAE","704","1065","VERBATIM_1335","APPLICATION SITE IRRITATION","GENERAL DISORDERS AND ADMINISTRATION SITE CONDITIONS","MILD","N",0,"PROBABLE","Y","Y","Y",,,1,,,,1,11/9/2013 0:00:00 AM,,17,17,,,"Xanomeline High Dose","Xan_Hi",2,75,"65-80",2,"CAUCASIAN",1,"M","Y","Y","Y","N","MedDRA version 8.0 (partially masked by request of MSSO)","N","N","N","N","N","N","HLGT_0346","HLT_0061","APPLICATION SITE BURNING",12/22/2013 0:00:00 AM,60,10/24/2013 0:00:00 AM
"01-704-1065",5,"CDISCPILOT01","ADAE","704","1065","VERBATIM_1562","MALAISE","GENERAL DISORDERS AND ADMINISTRATION SITE CONDITIONS","MILD","N",0,"POSSIBLE","Y","Y","Y",,,1,,,,,11/9/2013 0:00:00 AM,,17,17,,,"Xanomeline High Dose","Xan_Hi",2,75,"65-80",2,"CAUCASIAN",1,"M","Y","Y","Y","N","MedDRA version 8.0 (partially masked by request of MSSO)","N","N","N","N","N","N","HLGT_0178","HLT_0456","MALAISE",12/22/2013 0:00:00 AM,60,10/24/2013 0:00:00 AM
"01-704-1065",6,"CDISCPILOT01","ADAE","704","1065","VERBATIM_1115","HYPERHIDROSIS","SKIN AND SUBCUTANEOUS TISSUE DISORDERS","MILD","N",0,"POSSIBLE","Y","Y","Y",,,1,,,,,11/9/2013 0:00:00 AM,,17,17,,,"Xanomeline High Dose","Xan_Hi",2,75,"65-80",2,"CAUCASIAN",1,"M","Y","Y","Y","N","MedDRA version 8.0 (partially masked by request of MSSO)","N","N","N","N","N","N","HLGT_0005","HLT_0587","PERSPIRATION EXCESSIVE",12/22/2013 0:00:00 AM,60,10/24/2013 0:00:00 AM
"01-704-1065",7,"CDISCPILOT01","ADAE","704","1065","VERBATIM_1398","CHILLS","GENERAL DISORDERS AND ADMINISTRATION SITE CONDITIONS","MILD","N",0,"REMOTE","Y","Y","Y",,,1,,,,,11/17/2013 0:00:00 AM,,25,25,11/17/2013 0:00:00 AM,25,"Xanomeline High Dose","Xan_Hi",2,75,"65-80",2,"CAUCASIAN",1,"M","Y","Y","Y","N","MedDRA version 8.0 (partially masked by request of MSSO)","N","N","N","N","N","N","HLGT_0161","HLT_0586","CHILLS",12/22/2013 0:00:00 AM,60,10/24/2013 0:00:00 AM
"01-704-1065",8,"CDISCPILOT01","ADAE","704","1065","VERBATIM_1533","DIZZINESS","NERVOUS SYSTEM DISORDERS","MILD","N",0,"REMOTE","Y","Y","Y",,1,1,,,,,11/17/2013 0:00:00 AM,,25,25,11/17/2013 0:00:00 AM,25,"Xanomeline High Dose","Xan_Hi",2,75,"65-80",2,"CAUCASIAN",1,"M","Y","Y","Y","N","MedDRA version 8.0 (partially masked by request of MSSO)","N","N","N","N","N","N","HLGT_0751","HLT_0619","DIZZINESS",12/22/2013 0:00:00 AM,60,10/24/2013 0:00:00 AM
"01-704-1065",9,"CDISCPILOT01","ADAE","704","1065","VERBATIM_1126","DIARRHOEA","GASTROINTESTINAL DISORDERS","MILD","N",0,"REMOTE","Y","Y","Y",,,1,,,,,12/15/2013 0:00:00 AM,,53,53,12/15/2013 0:00:00 AM,53,"Xanomeline High Dose","Xan_Hi",2,75,"65-80",2,"CAUCASIAN",1,"M","Y","Y","Y","N","MedDRA version 8.0 (partially masked by request of MSSO)","N","N","N","N","N","N","HLGT_0588","HLT_0148","DIARRHEA",12/22/2013 0:00:00 AM,60,10/24/2013 0:00:00 AM
"01-704-1065",10,"CDISCPILOT01","ADAE","704","1065","VERBATIM_1422","SINUS BRADYCARDIA","CARDIAC DISORDERS","MILD","N",0,"NONE","Y","N","Y",,1,1,,,,,12/24/2013 0:00:00 AM,,62,62,,,"Xanomeline High Dose","Xan_Hi",2,75,"65-80",2,"CAUCASIAN",1,"M","Y","Y","Y","N","MedDRA version 8.0 (partially masked by request of MSSO)","N","N","N","N","N","N","HLGT_0500","HLT_0644","BRADYCARDIA SINUS",12/22/2013 0:00:00 AM,60,10/24/2013 0:00:00 AM
"01-704-1074",1,"CDISCPILOT01","ADAE","704","1074","VERBATIM_0216","PRURITUS","SKIN AND SUBCUTANEOUS TISSUE DISORDERS","MILD","N",0,"PROBABLE","Y","Y","Y",1,1,1,,,,1,1/22/2014 0:00:00 AM,,1,1,,,"Xanomeline High Dose","Xan_Hi",2,80,"65-80",2,"CAUCASIAN",1,"F","Y","Y","Y","N","MedDRA version 8.0 (partially masked by request of MSSO)","N","N","N","N","N","N","HLGT_0695","HLT_0778","ITCHING",3/20/2014 0:00:00 AM,58,1/22/2014 0:00:00 AM
"01-704-1074",2,"CDISCPILOT01","ADAE","704","1074","VERBATIM_0027","ERYTHEMA","SKIN AND SUBCUTANEOUS TISSUE DISORDERS","MILD","N",0,"PROBABLE","Y","Y","Y",,,1,,,,1,2/9/2014 0:00:00 AM,,19,19,,,"Xanomeline High Dose","Xan_Hi",2,80,"65-80",2,"CAUCASIAN",1,"F","Y","Y","Y","N","MedDRA version 8.0 (partially masked by request of MSSO)","N","N","N","N","N","N","HLGT_0192","HLT_0284","SKIN RED",3/20/2014 0:00:00 AM,58,1/22/2014 0:00:00 AM
"01-704-1093",1,"CDISCPILOT01","ADAE","704","1093","VERBATIM_0814","BLOOD GLUCOSE INCREASED","INVESTIGATIONS","MILD","N",0,"NONE","Y","Y","Y",1,1,1,,,,,3/30/2013 0:00:00 AM,,16,16,4/13/2013 0:00:00 AM,30,"Xanomeline High Dose","Xan_Hi",2,79,"65-80",2,"CAUCASIAN",1,"M","Y","Y","Y","N","MedDRA version 8.0 (partially masked by request of MSSO)","N","N","N","N","N","N","HLGT_0188","HLT_0450","GLUCOSE INCREASED",6/17/2013 0:00:00 AM,95,3/15/2013 0:00:00 AM
"01-704-1093",2,"CDISCPILOT01","ADAE","704","1093","VERBATIM_0814","BLOOD GLUCOSE INCREASED","INVESTIGATIONS","MILD","N",0,"NONE","Y","Y","Y",,,,,,,,3/30/2013 0:00:00 AM,,16,16,4/13/2013 0:00:00 AM,30,"Xanomeline High Dose","Xan_Hi",2,79,"65-80",2,"CAUCASIAN",1,"M","Y","Y","Y","N","MedDRA version 8.0 (partially masked by request of MSSO)","N","N","N","N","N","N","HLGT_0188","HLT_0450","GLUCOSE INCREASED",6/17/2013 0:00:00 AM,95,3/15/2013 0:00:00 AM
"01-704-1093",3,"CDISCPILOT01","ADAE","704","1093","VERBATIM_1452","RASH","SKIN AND SUBCUTANEOUS TISSUE DISORDERS","MILD","N",0,"PROBABLE","Y","Y","Y",,1,1,,,,1,5/4/2013 0:00:00 AM,,51,51,,,"Xanomeline High Dose","Xan_Hi",2,79,"65-80",2,"CAUCASIAN",1,"M","Y","Y","Y","N","MedDRA version 8.0 (partially masked by request of MSSO)","N","N","N","N","N","N","HLGT_0198","HLT_0762","RASH",6/17/2013 0:00:00 AM,95,3/15/2013 0:00:00 AM
"01-704-1093",4,"CDISCPILOT01","ADAE","704","1093","VERBATIM_0216","PRURITUS","SKIN AND SUBCUTANEOUS TISSUE DISORDERS","MILD","N",0,"PROBABLE","Y","Y","Y",,,1,,,,1,5/4/2013 0:00:00 AM,,51,51,,,"Xanomeline High Dose","Xan_Hi",2,79,"65-80",2,"CAUCASIAN",1,"M","Y","Y","Y","N","MedDRA version 8.0 (partially masked by request of MSSO)","N","N","N","N","N","N","HLGT_0695","HLT_0778","ITCHING",6/17/2013 0:00:00 AM,95,3/15/2013 0:00:00 AM
"01-704-1114",1,"CDISCPILOT01","ADAE","704","1114","VERBATIM_1639","ERYTHEMA","SKIN AND SUBCUTANEOUS TISSUE DISORDERS","MILD","N",0,"PROBABLE",,"Y","Y",1,1,1,,,,1,2/21/2013 0:00:00 AM,,30,30,2/23/2013 0:00:00 AM,32,"Xanomeline Low Dose","Xan_Lo",1,77,"65-80",2,"CAUCASIAN",1,"M","Y","Y","Y","Y","MedDRA version 8.0 (partially masked by request of MSSO)","N","N","N","N","N","N","HLGT_0192","HLT_0284","REDNESS",7/7/2013 0:00:00 AM,166,1/23/2013 0:00:00 AM
"01-704-1114",2,"CDISCPILOT01","ADAE","704","1114","VERBATIM_1138","OEDEMA","GENERAL DISORDERS AND ADMINISTRATION SITE CONDITIONS","MILD","N",0,"PROBABLE",,"Y","Y",,1,1,,,,,2/23/2013 0:00:00 AM,,32,32,,,"Xanomeline Low Dose","Xan_Lo",1,77,"65-80",2,"CAUCASIAN",1,"M","Y","Y","Y","Y","MedDRA version 8.0 (partially masked by request of MSSO)","N","N","N","N","N","N","HLGT_0036","HLT_0656","EDEMA",7/7/2013 0:00:00 AM,166,1/23/2013 0:00:00 AM
"01-704-1114",3,"CDISCPILOT01","ADAE","704","1114","VERBATIM_1452","RASH","SKIN AND SUBCUTANEOUS TISSUE DISORDERS","MILD","N",0,"PROBABLE",,"Y","Y",,,1,,,,1,3/23/2013 0:00:00 AM,,60,60,,,"Xanomeline Low Dose","Xan_Lo",1,77,"65-80",2,"CAUCASIAN",1,"M","Y","Y","Y","Y","MedDRA version 8.0 (partially masked by request of MSSO)","N","N","N","N","N","N","HLGT_0198","HLT_0762","RASH",7/7/2013 0:00:00 AM,166,1/23/2013 0:00:00 AM
"01-704-1114",4,"CDISCPILOT01","ADAE","704","1114","VERBATIM_0216","PRURITUS","SKIN AND SUBCUTANEOUS TISSUE DISORDERS","MILD","N",0,"PROBABLE",,"Y","Y",,,1,,,,1,3/23/2013 0:00:00 AM,,60,60,,,"Xanomeline Low Dose","Xan_Lo",1,77,"65-80",2,"CAUCASIAN",1,"M","Y","Y","Y","Y","MedDRA version 8.0 (partially masked by request of MSSO)","N","N","N","N","N","N","HLGT_0695","HLT_0778","ITCHING",7/7/2013 0:00:00 AM,166,1/23/2013 0:00:00 AM
"01-704-1114",5,"CDISCPILOT01","ADAE","704","1114","VERBATIM_1543","INFLUENZA","INFECTIONS AND INFESTATIONS","MILD","N",0,"NONE",,"Y","Y",,1,1,,,,,6/7/2013 0:00:00 AM,,136,136,6/13/2013 0:00:00 AM,142,"Xanomeline Low Dose","Xan_Lo",1,77,"65-80",2,"CAUCASIAN",1,"M","Y","Y","Y","Y","MedDRA version 8.0 (partially masked by request of MSSO)","N","N","N","N","N","N","HLGT_0081","HLT_0125","FLU",7/7/2013 0:00:00 AM,166,1/23/2013 0:00:00 AM
"01-704-1120",1,"CDISCPILOT01","ADAE","704","1120","VERBATIM_1452","RASH","SKIN AND SUBCUTANEOUS TISSUE DISORDERS","MILD","N",0,"PROBABLE","Y","Y","Y",1,1,1,,,,1,12/23/2013 0:00:00 AM,,22,22,,,"Xanomeline Low Dose","Xan_Lo",1,71,"65-80",2,"CAUCASIAN",1,"F","Y","Y","Y","N","MedDRA version 8.0 (partially masked by request of MSSO)","N","N","N","N","N","N","HLGT_0198","HLT_0762","RASH",2/1/2014 0:00:00 AM,62,12/2/2013 0:00:00 AM
"01-704-1120",2,"CDISCPILOT01","ADAE","704","1120","VERBATIM_1698","NASOPHARYNGITIS","INFECTIONS AND INFESTATIONS","MILD","N",0,"NONE","Y","Y","Y",,1,1,,,,,12/28/2013 0:00:00 AM,,27,27,2/3/2014 0:00:00 AM,64,"Xanomeline Low Dose","Xan_Lo",1,71,"65-80",2,"CAUCASIAN",1,"F","Y","Y","Y","N","MedDRA version 8.0 (partially masked by request of MSSO)","N","N","N","N","N","N","HLGT_0709","HLT_0036","COLD",2/1/2014 0:00:00 AM,62,12/2/2013 0:00:00 AM
"01-704-1120",3,"CDISCPILOT01","ADAE","704","1120","VERBATIM_1452","RASH","SKIN AND SUBCUTANEOUS TISSUE DISORDERS","MODERATE","N",0,"PROBABLE","Y","Y","Y",,,,,,,1,12/23/2013 0:00:00 AM,,22,22,,,"Xanomeline Low Dose","Xan_Lo",1,71,"65-80",2,"CAUCASIAN",1,"F","Y","Y","Y","N","MedDRA version 8.0 (partially masked by request of MSSO)","N","N","N","N","N","N","HLGT_0198","HLT_0762","RASH",2/1/2014 0:00:00 AM,62,12/2/2013 0:00:00 AM
"01-704-1120",4,"CDISCPILOT01","ADAE","704","1120","VERBATIM_0216","PRURITUS","SKIN AND SUBCUTANEOUS TISSUE DISORDERS","MILD","N",0,"PROBABLE","Y","Y","Y",,,1,,,,1,1/27/2014 0:00:00 AM,,57,57,,,"Xanomeline Low Dose","Xan_Lo",1,71,"65-80",2,"CAUCASIAN",1,"F","Y","Y","Y","N","MedDRA version 8.0 (partially masked by request of MSSO)","N","N","N","N","N","N","HLGT_0695","HLT_0778","ITCHING",2/1/2014 0:00:00 AM,62,12/2/2013 0:00:00 AM
"01-704-1120",5,"CDISCPILOT01","ADAE","704","1120","VERBATIM_0216","PRURITUS","SKIN AND SUBCUTANEOUS TISSUE DISORDERS","MODERATE","N",0,"PROBABLE","Y","Y","Y",,,,,,,1,1/27/2014 0:00:00 AM,,57,57,,,"Xanomeline Low Dose","Xan_Lo",1,71,"65-80",2,"CAUCASIAN",1,"F","Y","Y","Y","N","MedDRA version 8.0 (partially masked by request of MSSO)","N","N","N","N","N","N","HLGT_0695","HLT_0778","ITCHING",2/1/2014 0:00:00 AM,62,12/2/2013 0:00:00 AM
"01-704-1120",6,"CDISCPILOT01","ADAE","704","1120","VERBATIM_1698","NASOPHARYNGITIS","INFECTIONS AND INFESTATIONS","MILD","N",0,"NONE","Y","Y","Y",,,,,,,,12/28/2013 0:00:00 AM,,27,27,2/3/2014 0:00:00 AM,64,"Xanomeline Low Dose","Xan_Lo",1,71,"65-80",2,"CAUCASIAN",1,"F","Y","Y","Y","N","MedDRA version 8.0 (partially masked by request of MSSO)","N","N","N","N","N","N","HLGT_0709","HLT_0036","COLD",2/1/2014 0:00:00 AM,62,12/2/2013 0:00:00 AM
"01-704-1135",1,"CDISCPILOT01","ADAE","704","1135","VERBATIM_1452","RASH","SKIN AND SUBCUTANEOUS TISSUE DISORDERS","MILD","N",0,,,"Y","Y",1,1,1,,,,1,12/8/2013 0:00:00 AM,,39,39,,,"Xanomeline Low Dose","Xan_Lo",1,74,"65-80",2,"CAUCASIAN",1,"F","Y","Y","Y","Y","MedDRA version 8.0 (partially masked by request of MSSO)","N","N","N","N","N","N","HLGT_0198","HLT_0762","RASH",5/16/2014 0:00:00 AM,198,10/31/2013 0:00:00 AM
"01-704-1135",2,"CDISCPILOT01","ADAE","704","1135","VERBATIM_1452","RASH","SKIN AND SUBCUTANEOUS TISSUE DISORDERS","SEVERE","N",0,,,"Y","Y",,,,,,,1,12/8/2013 0:00:00 AM,,39,39,,,"Xanomeline Low Dose","Xan_Lo",1,74,"65-80",2,"CAUCASIAN",1,"F","Y","Y","Y","Y","MedDRA version 8.0 (partially masked by request of MSSO)","N","N","N","N","N","N","HLGT_0198","HLT_0762","RASH",5/16/2014 0:00:00 AM,198,10/31/2013 0:00:00 AM
"01-704-1164",1,"CDISCPILOT01","ADAE","704","1164","VERBATIM_1543","INFLUENZA","INFECTIONS AND INFESTATIONS","MILD","N",0,"NONE",,"Y","Y",1,1,1,,,,,9/27/2012 0:00:00 AM,,9,9,10/7/2012 0:00:00 AM,19,"Placebo","Pbo",0,67,"65-80",2,"CAUCASIAN",1,"F","Y","Y","Y","Y","MedDRA version 8.0 (partially masked by request of MSSO)","N","N","N","N","N","N","HLGT_0081","HLT_0125","FLU",4/4/2013 0:00:00 AM,198,9/19/2012 0:00:00 AM
"01-704-1164",2,"CDISCPILOT01","ADAE","704","1164","VERBATIM_1543","INFLUENZA","INFECTIONS AND INFESTATIONS","MILD","N",0,"NONE",,"Y","Y",,,,,,,,9/27/2012 0:00:00 AM,,9,9,10/7/2012 0:00:00 AM,19,"Placebo","Pbo",0,67,"65-80",2,"CAUCASIAN",1,"F","Y","Y","Y","Y","MedDRA version 8.0 (partially masked by request of MSSO)","N","N","N","N","N","N","HLGT_0081","HLT_0125","FLU",4/4/2013 0:00:00 AM,198,9/19/2012 0:00:00 AM
"01-704-1164",3,"CDISCPILOT01","ADAE","704","1164","VERBATIM_0304","OEDEMA PERIPHERAL","GENERAL DISORDERS AND ADMINISTRATION SITE CONDITIONS","MILD","N",0,"NONE",,"Y","Y",,1,1,,,,,2/4/2013 0:00:00 AM,,139,139,2/13/2013 0:00:00 AM,148,"Placebo","Pbo",0,67,"65-80",2,"CAUCASIAN",1,"F","Y","Y","Y","Y","MedDRA version 8.0 (partially masked by request of MSSO)","N","N","N","N","N","N","HLGT_0137","HLT_0661","SWELLING OF FEET",4/4/2013 0:00:00 AM,198,9/19/2012 0:00:00 AM
"01-704-1218",1,"CDISCPILOT01","ADAE","704","1218","VERBATIM_0814","BLOOD GLUCOSE INCREASED","INVESTIGATIONS","MILD","N",0,"NONE",,"Y","Y",1,1,1,,,,,12/30/2012 0:00:00 AM,,42,42,,,"Xanomeline Low Dose","Xan_Lo",1,81,">80",3,"CAUCASIAN",1,"F","Y","Y","Y","Y","MedDRA version 8.0 (partially masked by request of MSSO)","N","N","N","N","N","N","HLGT_0188","HLT_0450","GLUCOSE INCREASED",5/27/2013 0:00:00 AM,190,11/19/2012 0:00:00 AM
"01-704-1241",1,"CDISCPILOT01","ADAE","704","1241","VERBATIM_1452","RASH","SKIN AND SUBCUTANEOUS TISSUE DISORDERS","MODERATE","N",0,"NONE","Y","N","N",,,,,,,1,8/14/2013 0:00:00 AM,,-11,-10,,,"Xanomeline High Dose","Xan_Hi",2,86,">80",3,"CAUCASIAN",1,"M","Y","Y","Y","N","MedDRA version 8.0 (partially masked by request of MSSO)","N","N","N","N","N","N","HLGT_0198","HLT_0762","RASH",10/9/2013 0:00:00 AM,46,8/25/2013 0:00:00 AM
"01-704-1241",2,"CDISCPILOT01","ADAE","704","1241","VERBATIM_0785","DYSPNOEA","RESPIRATORY, THORACIC AND MEDIASTINAL DISORDERS","MILD","N",0,"NONE","Y","Y","Y",1,1,1,,,,,9/28/2013 0:00:00 AM,,35,35,,,"Xanomeline High Dose","Xan_Hi",2,86,">80",3,"CAUCASIAN",1,"M","Y","Y","Y","N","MedDRA version 8.0 (partially masked by request of MSSO)","N","N","N","N","N","N","HLGT_0255","HLT_0296","RESPIRATION LABORED",10/9/2013 0:00:00 AM,46,8/25/2013 0:00:00 AM
"01-704-1266",1,"CDISCPILOT01","ADAE","704","1266","VERBATIM_0396","SEASONAL ALLERGY","IMMUNE SYSTEM DISORDERS","MILD","N",0,"NONE","Y","N","N",,,,,,,,10/6/2013 0:00:00 AM,,-7,-6,,,"Xanomeline High Dose","Xan_Hi",2,82,">80",3,"CAUCASIAN",1,"M","Y","Y","Y","N","MedDRA version 8.0 (partially masked by request of MSSO)","N","N","N","N","N","N","HLGT_0782","HLT_0714","HAY FEVER",12/6/2013 0:00:00 AM,55,10/13/2013 0:00:00 AM
"01-704-1266",2,"CDISCPILOT01","ADAE","704","1266","VERBATIM_0300","ERYTHEMA","SKIN AND SUBCUTANEOUS TISSUE DISORDERS","MILD","N",0,"PROBABLE","Y","Y","Y",1,1,1,,,,1,10/17/2013 0:00:00 AM,,5,5,12/23/2013 0:00:00 AM,72,"Xanomeline High Dose","Xan_Hi",2,82,">80",3,"CAUCASIAN",1,"M","Y","Y","Y","N","MedDRA version 8.0 (partially masked by request of MSSO)","N","N","N","N","N","N","HLGT_0192","HLT_0284","ERYTHEMA",12/6/2013 0:00:00 AM,55,10/13/2013 0:00:00 AM
"01-704-1266",3,"CDISCPILOT01","ADAE","704","1266","VERBATIM_0096","ATRIAL FLUTTER","CARDIAC DISORDERS","MILD","N",0,"NONE","Y","Y","Y",,1,1,,,,,10/27/2013 0:00:00 AM,,15,15,11/8/2013 0:00:00 AM,27,"Xanomeline High Dose","Xan_Hi",2,82,">80",3,"CAUCASIAN",1,"M","Y","Y","Y","N","MedDRA version 8.0 (partially masked by request of MSSO)","N","N","N","N","N","N","HLGT_0627","HLT_0477","ATRIAL FLUTTER",12/6/2013 0:00:00 AM,55,10/13/2013 0:00:00 AM
"01-704-1266",4,"CDISCPILOT01","ADAE","704","1266","VERBATIM_0402","ATRIAL FIBRILLATION","CARDIAC DISORDERS","MILD","N",0,"NONE","Y","Y","Y",,,1,,,,,11/8/2013 0:00:00 AM,,27,27,12/6/2013 0:00:00 AM,55,"Xanomeline High Dose","Xan_Hi",2,82,">80",3,"CAUCASIAN",1,"M","Y","Y","Y","N","MedDRA version 8.0 (partially masked by request of MSSO)","N","N","N","N","N","N","HLGT_0012","HLT_0365","ATRIAL FIBRILLATION",12/6/2013 0:00:00 AM,55,10/13/2013 0:00:00 AM
"01-704-1266",5,"CDISCPILOT01","ADAE","704","1266","VERBATIM_0096","ATRIAL FLUTTER","CARDIAC DISORDERS","MILD","N",0,"NONE","Y","Y","Y",,,,,,,,10/27/2013 0:00:00 AM,,15,15,11/8/2013 0:00:00 AM,27,"Xanomeline High Dose","Xan_Hi",2,82,">80",3,"CAUCASIAN",1,"M","Y","Y","Y","N","MedDRA version 8.0 (partially masked by request of MSSO)","N","N","N","N","N","N","HLGT_0627","HLT_0477","ATRIAL FLUTTER",12/6/2013 0:00:00 AM,55,10/13/2013 0:00:00 AM
"01-704-1266",6,"CDISCPILOT01","ADAE","704","1266","VERBATIM_1115","HYPERHIDROSIS","SKIN AND SUBCUTANEOUS TISSUE DISORDERS","MILD","N",0,"POSSIBLE","Y","Y","Y",,,1,,,,,11/9/2013 0:00:00 AM,,28,28,12/4/2013 0:00:00 AM,53,"Xanomeline High Dose","Xan_Hi",2,82,">80",3,"CAUCASIAN",1,"M","Y","Y","Y","N","MedDRA version 8.0 (partially masked by request of MSSO)","N","N","N","N","N","N","HLGT_0005","HLT_0587","PERSPIRATION EXCESSIVE",12/6/2013 0:00:00 AM,55,10/13/2013 0:00:00 AM
"01-704-1266",7,"CDISCPILOT01","ADAE","704","1266","VERBATIM_0408","BLISTER","SKIN AND SUBCUTANEOUS TISSUE DISORDERS","MILD","N",0,"PROBABLE","Y","Y","Y",,,1,,,,1,11/15/2013 0:00:00 AM,,34,34,12/14/2013 0:00:00 AM,63,"Xanomeline High Dose","Xan_Hi",2,82,">80",3,"CAUCASIAN",1,"M","Y","Y","Y","N","MedDRA version 8.0 (partially masked by request of MSSO)","N","N","N","N","N","N","HLGT_0267","HLT_0752","BLISTERING",12/6/2013 0:00:00 AM,55,10/13/2013 0:00:00 AM
"01-704-1266",8,"CDISCPILOT01","ADAE","704","1266","VERBATIM_0216","PRURITUS","SKIN AND SUBCUTANEOUS TISSUE DISORDERS","MILD","N",0,"PROBABLE","Y","Y","Y",,,1,,,,1,11/15/2013 0:00:00 AM,,34,34,12/23/2013 0:00:00 AM,72,"Xanomeline High Dose","Xan_Hi",2,82,">80",3,"CAUCASIAN",1,"M","Y","Y","Y","N","MedDRA version 8.0 (partially masked by request of MSSO)","N","N","N","N","N","N","HLGT_0695","HLT_0778","ITCHING",12/6/2013 0:00:00 AM,55,10/13/2013 0:00:00 AM
"01-704-1266",9,"CDISCPILOT01","ADAE","704","1266","VERBATIM_0300","ERYTHEMA","SKIN AND SUBCUTANEOUS TISSUE DISORDERS","MODERATE","N",0,"PROBABLE","Y","Y","Y",,,,,,,1,10/17/2013 0:00:00 AM,,5,5,12/23/2013 0:00:00 AM,72,"Xanomeline High Dose","Xan_Hi",2,82,">80",3,"CAUCASIAN",1,"M","Y","Y","Y","N","MedDRA version 8.0 (partially masked by request of MSSO)","N","N","N","N","N","N","HLGT_0192","HLT_0284","ERYTHEMA",12/6/2013 0:00:00 AM,55,10/13/2013 0:00:00 AM
"01-704-1266",10,"CDISCPILOT01","ADAE","704","1266","VERBATIM_1115","HYPERHIDROSIS","SKIN AND SUBCUTANEOUS TISSUE DISORDERS","MILD","N",0,"POSSIBLE","Y","Y","Y",,,,,,,,11/9/2013 0:00:00 AM,,28,28,12/4/2013 0:00:00 AM,53,"Xanomeline High Dose","Xan_Hi",2,82,">80",3,"CAUCASIAN",1,"M","Y","Y","Y","N","MedDRA version 8.0 (partially masked by request of MSSO)","N","N","N","N","N","N","HLGT_0005","HLT_0587","PERSPIRATION EXCESSIVE",12/6/2013 0:00:00 AM,55,10/13/2013 0:00:00 AM
"01-704-1266",11,"CDISCPILOT01","ADAE","704","1266","VERBATIM_1287","ERYTHEMA","SKIN AND SUBCUTANEOUS TISSUE DISORDERS","MILD","N",0,"PROBABLE","Y","Y","Y",,,,,,,1,12/6/2013 0:00:00 AM,,55,55,12/23/2013 0:00:00 AM,72,"Xanomeline High Dose","Xan_Hi",2,82,">80",3,"CAUCASIAN",1,"M","Y","Y","Y","N","MedDRA version 8.0 (partially masked by request of MSSO)","N","N","N","N","N","N","HLGT_0192","HLT_0284","REDNESS",12/6/2013 0:00:00 AM,55,10/13/2013 0:00:00 AM
"01-704-1266",12,"CDISCPILOT01","ADAE","704","1266","VERBATIM_0300","ERYTHEMA","SKIN AND SUBCUTANEOUS TISSUE DISORDERS","MODERATE","N",0,"PROBABLE","Y","Y","Y",,,,,,,1,10/17/2013 0:00:00 AM,,5,5,12/23/2013 0:00:00 AM,72,"Xanomeline High Dose","Xan_Hi",2,82,">80",3,"CAUCASIAN",1,"M","Y","Y","Y","N","MedDRA version 8.0 (partially masked by request of MSSO)","N","N","N","N","N","N","HLGT_0192","HLT_0284","ERYTHEMA",12/6/2013 0:00:00 AM,55,10/13/2013 0:00:00 AM
"01-704-1266",13,"CDISCPILOT01","ADAE","704","1266","VERBATIM_0402","ATRIAL FIBRILLATION","CARDIAC DISORDERS","MILD","N",0,"NONE","Y","Y","Y",,,,,,,,11/8/2013 0:00:00 AM,,27,27,12/6/2013 0:00:00 AM,55,"Xanomeline High Dose","Xan_Hi",2,82,">80",3,"CAUCASIAN",1,"M","Y","Y","Y","N","MedDRA version 8.0 (partially masked by request of MSSO)","N","N","N","N","N","N","HLGT_0012","HLT_0365","ATRIAL FIBRILLATION",12/6/2013 0:00:00 AM,55,10/13/2013 0:00:00 AM
"01-704-1266",14,"CDISCPILOT01","ADAE","704","1266","VERBATIM_0408","BLISTER","SKIN AND SUBCUTANEOUS TISSUE DISORDERS","MILD","N",0,"PROBABLE","Y","Y","Y",,,,,,,1,11/15/2013 0:00:00 AM,,34,34,12/14/2013 0:00:00 AM,63,"Xanomeline High Dose","Xan_Hi",2,82,">80",3,"CAUCASIAN",1,"M","Y","Y","Y","N","MedDRA version 8.0 (partially masked by request of MSSO)","N","N","N","N","N","N","HLGT_0267","HLT_0752","BLISTERING",12/6/2013 0:00:00 AM,55,10/13/2013 0:00:00 AM
"01-704-1266",15,"CDISCPILOT01","ADAE","704","1266","VERBATIM_0216","PRURITUS","SKIN AND SUBCUTANEOUS TISSUE DISORDERS","MILD","N",0,"PROBABLE","Y","Y","Y",,,,,,,1,11/15/2013 0:00:00 AM,,34,34,12/23/2013 0:00:00 AM,72,"Xanomeline High Dose","Xan_Hi",2,82,">80",3,"CAUCASIAN",1,"M","Y","Y","Y","N","MedDRA version 8.0 (partially masked by request of MSSO)","N","N","N","N","N","N","HLGT_0695","HLT_0778","ITCHING",12/6/2013 0:00:00 AM,55,10/13/2013 0:00:00 AM
"01-704-1266",16,"CDISCPILOT01","ADAE","704","1266","VERBATIM_1287","ERYTHEMA","SKIN AND SUBCUTANEOUS TISSUE DISORDERS","MILD","N",0,"PROBABLE","Y","Y","Y",,,,,,,1,12/6/2013 0:00:00 AM,,55,55,12/23/2013 0:00:00 AM,72,"Xanomeline High Dose","Xan_Hi",2,82,">80",3,"CAUCASIAN",1,"M","Y","Y","Y","N","MedDRA version 8.0 (partially masked by request of MSSO)","N","N","N","N","N","N","HLGT_0192","HLT_0284","REDNESS",12/6/2013 0:00:00 AM,55,10/13/2013 0:00:00 AM
"01-704-1323",1,"CDISCPILOT01","ADAE","704","1323","VERBATIM_0002","VIRAL INFECTION","INFECTIONS AND INFESTATIONS","MILD","N",0,"NONE","Y","Y","Y",1,1,1,,,,,7/30/2013 0:00:00 AM,,23,23,8/3/2013 0:00:00 AM,27,"Xanomeline Low Dose","Xan_Lo",1,68,"65-80",2,"CAUCASIAN",1,"F","Y","Y","N","N","MedDRA version 8.0 (partially masked by request of MSSO)","N","N","N","N","N","N","HLGT_0408","HLT_0733","VIRAL INFECTION",8/5/2013 0:00:00 AM,29,7/8/2013 0:00:00 AM
"01-704-1323",2,"CDISCPILOT01","ADAE","704","1323","VERBATIM_1452","RASH","SKIN AND SUBCUTANEOUS TISSUE DISORDERS","MILD","N",0,"PROBABLE","Y","Y","Y",,1,1,,,,1,8/4/2013 0:00:00 AM,,28,28,,,"Xanomeline Low Dose","Xan_Lo",1,68,"65-80",2,"CAUCASIAN",1,"F","Y","Y","N","N","MedDRA version 8.0 (partially masked by request of MSSO)","N","N","N","N","N","N","HLGT_0198","HLT_0762","RASH",8/5/2013 0:00:00 AM,29,7/8/2013 0:00:00 AM
"01-704-1323",3,"CDISCPILOT01","ADAE","704","1323","VERBATIM_0216","PRURITUS","SKIN AND SUBCUTANEOUS TISSUE DISORDERS","MILD","N",0,"PROBABLE","Y","Y","Y",,,1,,,,1,8/4/2013 0:00:00 AM,,28,28,,,"Xanomeline Low Dose","Xan_Lo",1,68,"65-80",2,"CAUCASIAN",1,"F","Y","Y","N","N","MedDRA version 8.0 (partially masked by request of MSSO)","N","N","N","N","N","N","HLGT_0695","HLT_0778","ITCHING",8/5/2013 0:00:00 AM,29,7/8/2013 0:00:00 AM
"01-704-1323",4,"CDISCPILOT01","ADAE","704","1323","VERBATIM_0248","OEDEMA","GENERAL DISORDERS AND ADMINISTRATION SITE CONDITIONS","MILD","N",0,"PROBABLE","Y","Y","Y",,1,1,,,,,8/4/2013 0:00:00 AM,,28,28,,,"Xanomeline Low Dose","Xan_Lo",1,68,"65-80",2,"CAUCASIAN",1,"F","Y","Y","N","N","MedDRA version 8.0 (partially masked by request of MSSO)","N","N","N","N","N","N","HLGT_0036","HLT_0656","EDEMA",8/5/2013 0:00:00 AM,29,7/8/2013 0:00:00 AM
"01-704-1325",1,"CDISCPILOT01","ADAE","704","1325","VERBATIM_1452","RASH","SKIN AND SUBCUTANEOUS TISSUE DISORDERS","MILD","N",0,"PROBABLE",,"Y","Y",1,1,1,,,,1,5/23/2014 0:00:00 AM,,31,31,,,"Xanomeline Low Dose","Xan_Lo",1,81,">80",3,"CAUCASIAN",1,"M","Y","Y","Y","N","MedDRA version 8.0 (partially masked by request of MSSO)","N","N","N","N","N","N","HLGT_0198","HLT_0762","RASH",7/4/2014 0:00:00 AM,73,4/23/2014 0:00:00 AM
"01-704-1325",2,"CDISCPILOT01","ADAE","704","1325","VERBATIM_0216","PRURITUS","SKIN AND SUBCUTANEOUS TISSUE DISORDERS","MILD","N",0,"PROBABLE",,"Y","Y",,,1,,,,1,7/4/2014 0:00:00 AM,,73,73,,,"Xanomeline Low Dose","Xan_Lo",1,81,">80",3,"CAUCASIAN",1,"M","Y","Y","Y","N","MedDRA version 8.0 (partially masked by request of MSSO)","N","N","N","N","N","N","HLGT_0695","HLT_0778","ITCHING",7/4/2014 0:00:00 AM,73,4/23/2014 0:00:00 AM
"01-704-1332",1,"CDISCPILOT01","ADAE","704","1332","VERBATIM_1452","RASH","SKIN AND SUBCUTANEOUS TISSUE DISORDERS","MILD","N",0,"NONE","Y","Y","Y",1,1,1,,,,1,12/10/2013 0:00:00 AM,,2,2,2/24/2014 0:00:00 AM,78,"Xanomeline High Dose","Xan_Hi",2,80,"65-80",2,"CAUCASIAN",1,"M","Y","Y","Y","N","MedDRA version 8.0 (partially masked by request of MSSO)","N","N","N","N","N","N","HLGT_0198","HLT_0762","RASH",2/14/2014 0:00:00 AM,68,12/9/2013 0:00:00 AM
"01-704-1332",2,"CDISCPILOT01","ADAE","704","1332","VERBATIM_0216","PRURITUS","SKIN AND SUBCUTANEOUS TISSUE DISORDERS","MILD","N",0,"PROBABLE","Y","Y","Y",,,1,,,,1,1/18/2014 0:00:00 AM,,41,41,2/24/2014 0:00:00 AM,78,"Xanomeline High Dose","Xan_Hi",2,80,"65-80",2,"CAUCASIAN",1,"M","Y","Y","Y","N","MedDRA version 8.0 (partially masked by request of MSSO)","N","N","N","N","N","N","HLGT_0695","HLT_0778","ITCHING",2/14/2014 0:00:00 AM,68,12/9/2013 0:00:00 AM
"01-704-1332",3,"CDISCPILOT01","ADAE","704","1332","VERBATIM_1452","RASH","SKIN AND SUBCUTANEOUS TISSUE DISORDERS","MODERATE","N",0,"NONE","Y","Y","Y",,,,,,,1,12/10/2013 0:00:00 AM,,2,2,2/24/2014 0:00:00 AM,78,"Xanomeline High Dose","Xan_Hi",2,80,"65-80",2,"CAUCASIAN",1,"M","Y","Y","Y","N","MedDRA version 8.0 (partially masked by request of MSSO)","N","N","N","N","N","N","HLGT_0198","HLT_0762","RASH",2/14/2014 0:00:00 AM,68,12/9/2013 0:00:00 AM
"01-704-1332",4,"CDISCPILOT01","ADAE","704","1332","VERBATIM_1128","BURNING SENSATION","NERVOUS SYSTEM DISORDERS","MILD","N",0,"PROBABLE","Y","Y","Y",,1,1,,,,,2/3/2014 0:00:00 AM,,57,57,,,"Xanomeline High Dose","Xan_Hi",2,80,"65-80",2,"CAUCASIAN",1,"M","Y","Y","Y","N","MedDRA version 8.0 (partially masked by request of MSSO)","N","N","N","N","N","N","HLGT_0456","HLT_0775","BURNING SENSATION",2/14/2014 0:00:00 AM,68,12/9/2013 0:00:00 AM
"01-704-1332",5,"CDISCPILOT01","ADAE","704","1332","VERBATIM_1452","RASH","SKIN AND SUBCUTANEOUS TISSUE DISORDERS","MODERATE","N",0,"NONE","Y","Y","Y",,,,,,,1,12/10/2013 0:00:00 AM,,2,2,2/24/2014 0:00:00 AM,78,"Xanomeline High Dose","Xan_Hi",2,80,"65-80",2,"CAUCASIAN",1,"M","Y","Y","Y","N","MedDRA version 8.0 (partially masked by request of MSSO)","N","N","N","N","N","N","HLGT_0198","HLT_0762","RASH",2/14/2014 0:00:00 AM,68,12/9/2013 0:00:00 AM
"01-704-1332",6,"CDISCPILOT01","ADAE","704","1332","VERBATIM_0216","PRURITUS","SKIN AND SUBCUTANEOUS TISSUE DISORDERS","MILD","N",0,"PROBABLE","Y","Y","Y",,,,,,,1,1/18/2014 0:00:00 AM,,41,41,2/24/2014 0:00:00 AM,78,"Xanomeline High Dose","Xan_Hi",2,80,"65-80",2,"CAUCASIAN",1,"M","Y","Y","Y","N","MedDRA version 8.0 (partially masked by request of MSSO)","N","N","N","N","N","N","HLGT_0695","HLT_0778","ITCHING",2/14/2014 0:00:00 AM,68,12/9/2013 0:00:00 AM
"01-704-1351",1,"CDISCPILOT01","ADAE","704","1351","VERBATIM_1701","POLLAKIURIA","RENAL AND URINARY DISORDERS","MILD","N",0,"NONE",,"Y","Y",1,1,1,,,,,10/27/2013 0:00:00 AM,,16,16,4/4/2014 0:00:00 AM,175,"Placebo","Pbo",0,70,"65-80",2,"CAUCASIAN",1,"M","Y","Y","Y","Y","MedDRA version 8.0 (partially masked by request of MSSO)","N","N","N","N","N","N","HLGT_0560","HLT_0393","URINARY FREQUENCY",4/18/2014 0:00:00 AM,189,10/12/2013 0:00:00 AM
"01-704-1351",2,"CDISCPILOT01","ADAE","704","1351","VERBATIM_0867","FLATULENCE","GASTROINTESTINAL DISORDERS","MILD","N",0,"NONE",,"Y","Y",,1,1,,,,,10/27/2013 0:00:00 AM,,16,16,4/4/2014 0:00:00 AM,175,"Placebo","Pbo",0,70,"65-80",2,"CAUCASIAN",1,"M","Y","Y","Y","Y","MedDRA version 8.0 (partially masked by request of MSSO)","N","N","N","N","N","N","HLGT_0504","HLT_0356","GAS",4/18/2014 0:00:00 AM,189,10/12/2013 0:00:00 AM
"01-704-1351",3,"CDISCPILOT01","ADAE","704","1351","VERBATIM_1701","POLLAKIURIA","RENAL AND URINARY DISORDERS","MILD","N",0,"NONE",,"Y","Y",,,,,,,,10/27/2013 0:00:00 AM,,16,16,4/4/2014 0:00:00 AM,175,"Placebo","Pbo",0,70,"65-80",2,"CAUCASIAN",1,"M","Y","Y","Y","Y","MedDRA version 8.0 (partially masked by request of MSSO)","N","N","N","N","N","N","HLGT_0560","HLT_0393","URINARY FREQUENCY",4/18/2014 0:00:00 AM,189,10/12/2013 0:00:00 AM
"01-704-1351",4,"CDISCPILOT01","ADAE","704","1351","VERBATIM_0867","FLATULENCE","GASTROINTESTINAL DISORDERS","MILD","N",0,"NONE",,"Y","Y",,,,,,,,10/27/2013 0:00:00 AM,,16,16,4/4/2014 0:00:00 AM,175,"Placebo","Pbo",0,70,"65-80",2,"CAUCASIAN",1,"M","Y","Y","Y","Y","MedDRA version 8.0 (partially masked by request of MSSO)","N","N","N","N","N","N","HLGT_0504","HLT_0356","GAS",4/18/2014 0:00:00 AM,189,10/12/2013 0:00:00 AM
"01-704-1388",1,"CDISCPILOT01","ADAE","704","1388","VERBATIM_0301","HEADACHE","NERVOUS SYSTEM DISORDERS","MODERATE","N",0,"NONE",,"N","N",,,,,,,,8/23/2012 0:00:00 AM,,-106,-105,,,"Placebo","Pbo",0,81,">80",3,"CAUCASIAN",1,"M","Y","Y","Y","Y","MedDRA version 8.0 (partially masked by request of MSSO)","N","N","N","N","N","N","HLGT_0344","HLT_0064","HEADACHE",6/11/2013 0:00:00 AM,187,12/7/2012 0:00:00 AM
"01-704-1435",1,"CDISCPILOT01","ADAE","704","1435","VERBATIM_1127","PARKINSON'S DISEASE","NERVOUS SYSTEM DISORDERS","MILD","N",0,"NONE",,"Y","Y",1,1,1,,,,,1/6/2013 0:00:00 AM,,51,51,,,"Placebo","Pbo",0,74,"65-80",2,"CAUCASIAN",1,"M","Y","Y","Y","N","MedDRA version 8.0 (partially masked by request of MSSO)","N","N","N","N","N","N","HLGT_0313","HLT_0279","DISEASE PARKINSON'S",1/9/2013 0:00:00 AM,54,11/17/2012 0:00:00 AM
"01-704-1445",1,"CDISCPILOT01","ADAE","704","1445","VERBATIM_0276","COMPLETED SUICIDE","PSYCHIATRIC DISORDERS","SEVERE","N",0,"NONE",,"Y","Y",1,1,1,,,,,10/31/2014 0:00:00 AM,,174,174,10/31/2014 0:00:00 AM,174,"Placebo","Pbo",0,75,"65-80",2,"CAUCASIAN",1,"M","Y","Y","Y","Y","MedDRA version 8.0 (partially masked by request of MSSO)","N","N","N","Y","N","N","HLGT_0013","HLT_0625","SUICIDE",11/1/2014 0:00:00 AM,175,5/11/2014 0:00:00 AM
"01-705-1031",1,"CDISCPILOT01","ADAE","705","1031","VERBATIM_1452","RASH","SKIN AND SUBCUTANEOUS TISSUE DISORDERS","MILD","N",0,"POSSIBLE",,"Y","Y",1,1,1,,,,1,12/25/2013 0:00:00 AM,,29,29,,,"Xanomeline Low Dose","Xan_Lo",1,56,"<65",1,"HISPANIC (MEXICAN - AMERICAN, MEXICO, CENTRAL AND SOUTH AMERICA)",5,"F","Y","Y","Y","Y","MedDRA version 8.0 (partially masked by request of MSSO)","N","N","N","N","N","N","HLGT_0198","HLT_0762","RASH",5/11/2014 0:00:00 AM,166,11/27/2013 0:00:00 AM
"01-705-1059",1,"CDISCPILOT01","ADAE","705","1059","VERBATIM_0314","ERYTHEMA","SKIN AND SUBCUTANEOUS TISSUE DISORDERS","MODERATE","N",0,"PROBABLE","Y","Y","Y",1,1,1,,,,1,11/2/2013 0:00:00 AM,,90,90,,,"Placebo","Pbo",0,66,"65-80",2,"CAUCASIAN",1,"F","Y","Y","Y","N","MedDRA version 8.0 (partially masked by request of MSSO)","N","N","N","N","N","N","HLGT_0192","HLT_0284","ERYTHEMA",12/5/2013 0:00:00 AM,123,8/5/2013 0:00:00 AM
"01-705-1186",1,"CDISCPILOT01","ADAE","705","1186","VERBATIM_0669","HYPERBILIRUBINAEMIA","HEPATOBILIARY DISORDERS","MODERATE","N",0,"REMOTE",,"Y","Y",1,1,1,,,,,1/26/2014 0:00:00 AM,,19,19,,,"Placebo","Pbo",0,84,">80",3,"CAUCASIAN",1,"F","Y","Y","N","N","MedDRA version 8.0 (partially masked by request of MSSO)","N","N","N","N","N","N","HLGT_0087","HLT_0478","HYPERBILIRUBINEMIA",1/26/2014 0:00:00 AM,19,1/8/2014 0:00:00 AM
"01-705-1199",1,"CDISCPILOT01","ADAE","705","1199","VERBATIM_0697","DYSPEPSIA","GASTROINTESTINAL DISORDERS","MODERATE","N",0,"POSSIBLE","Y","Y","Y",1,1,1,,,,,9/17/2013 0:00:00 AM,,2,2,9/29/2013 0:00:00 AM,14,"Xanomeline Low Dose","Xan_Lo",1,87,">80",3,"CAUCASIAN",1,"M","Y","Y","Y","N","MedDRA version 8.0 (partially masked by request of MSSO)","N","N","N","N","N","N","HLGT_0716","HLT_0244","PYROSIS",9/28/2013 0:00:00 AM,13,9/16/2013 0:00:00 AM
"01-705-1199",2,"CDISCPILOT01","ADAE","705","1199","VERBATIM_0697","DYSPEPSIA","GASTROINTESTINAL DISORDERS","MODERATE","N",0,"POSSIBLE","Y","Y","Y",,,,,,,,9/17/2013 0:00:00 AM,,2,2,9/29/2013 0:00:00 AM,14,"Xanomeline Low Dose","Xan_Lo",1,87,">80",3,"CAUCASIAN",1,"M","Y","Y","Y","N","MedDRA version 8.0 (partially masked by request of MSSO)","N","N","N","N","N","N","HLGT_0716","HLT_0244","PYROSIS",9/28/2013 0:00:00 AM,13,9/16/2013 0:00:00 AM
"01-705-1280",1,"CDISCPILOT01","ADAE","705","1280","VERBATIM_0215","PRURITUS","SKIN AND SUBCUTANEOUS TISSUE DISORDERS","MILD","N",0,"POSSIBLE",,"Y","Y",1,1,1,,,,1,4/20/2014 0:00:00 AM,,94,94,,,"Xanomeline High Dose","Xan_Hi",2,56,"<65",1,"CAUCASIAN",1,"F","Y","Y","Y","Y","MedDRA version 8.0 (partially masked by request of MSSO)","N","N","N","N","N","N","HLGT_0695","HLT_0778","PRURITUS",7/25/2014 0:00:00 AM,190,1/17/2014 0:00:00 AM
"01-705-1281",1,"CDISCPILOT01","ADAE","705","1281","VERBATIM_0215","PRURITUS","SKIN AND SUBCUTANEOUS TISSUE DISORDERS","MILD","N",0,"POSSIBLE","Y","Y","Y",1,1,1,,,,1,1/30/2014 0:00:00 AM,,64,64,,,"Xanomeline High Dose","Xan_Hi",2,73,"65-80",2,"AFRICAN DESCENT (NEGRO, BLACK)",2,"F","Y","Y","Y","N","MedDRA version 8.0 (partially masked by request of MSSO)","N","N","N","N","N","N","HLGT_0695","HLT_0778","PRURITUS",2/27/2014 0:00:00 AM,92,11/28/2013 0:00:00 AM
"01-705-1281",2,"CDISCPILOT01","ADAE","705","1281","VERBATIM_1755","EXCORIATION","INJURY, POISONING AND PROCEDURAL COMPLICATIONS","MODERATE","N",0,"PROBABLE","Y","Y","Y",,1,1,,,,,1/30/2014 0:00:00 AM,,64,64,,,"Xanomeline High Dose","Xan_Hi",2,73,"65-80",2,"AFRICAN DESCENT (NEGRO, BLACK)",2,"F","Y","Y","Y","N","MedDRA version 8.0 (partially masked by request of MSSO)","N","N","N","N","N","N","HLGT_0511","HLT_0738","ABRASIONS",2/27/2014 0:00:00 AM,92,11/28/2013 0:00:00 AM
"01-705-1281",3,"CDISCPILOT01","ADAE","705","1281","VERBATIM_0215","PRURITUS","SKIN AND SUBCUTANEOUS TISSUE DISORDERS","MODERATE","N",0,"POSSIBLE","Y","Y","Y",,,,,,,1,1/30/2014 0:00:00 AM,,64,64,,,"Xanomeline High Dose","Xan_Hi",2,73,"65-80",2,"AFRICAN DESCENT (NEGRO, BLACK)",2,"F","Y","Y","Y","N","MedDRA version 8.0 (partially masked by request of MSSO)","N","N","N","N","N","N","HLGT_0695","HLT_0778","PRURITUS",2/27/2014 0:00:00 AM,92,11/28/2013 0:00:00 AM
"01-705-1292",1,"CDISCPILOT01","ADAE","705","1292","VERBATIM_0373","PRURITUS","SKIN AND SUBCUTANEOUS TISSUE DISORDERS","MILD","N",0,"PROBABLE",,"Y","Y",1,1,1,,,,1,10/28/2013 0:00:00 AM,,15,15,,,"Xanomeline Low Dose","Xan_Lo",1,60,"<65",1,"AFRICAN DESCENT (NEGRO, BLACK)",2,"F","Y","Y","Y","Y","MedDRA version 8.0 (partially masked by request of MSSO)","N","N","N","N","N","N","HLGT_0695","HLT_0778","ITCHY",5/13/2014 0:00:00 AM,212,10/14/2013 0:00:00 AM
"01-705-1292",2,"CDISCPILOT01","ADAE","705","1292","VERBATIM_0314","ERYTHEMA","SKIN AND SUBCUTANEOUS TISSUE DISORDERS","MODERATE","N",0,"PROBABLE",,"Y","Y",,,1,,,,1,2/13/2014 0:00:00 AM,,123,123,,,"Xanomeline Low Dose","Xan_Lo",1,60,"<65",1,"AFRICAN DESCENT (NEGRO, BLACK)",2,"F","Y","Y","Y","Y","MedDRA version 8.0 (partially masked by request of MSSO)","N","N","N","N","N","N","HLGT_0192","HLT_0284","ERYTHEMA",5/13/2014 0:00:00 AM,212,10/14/2013 0:00:00 AM
"01-705-1303",1,"CDISCPILOT01","ADAE","705","1303","VERBATIM_0215","PRURITUS","SKIN AND SUBCUTANEOUS TISSUE DISORDERS","MILD","N",0,"POSSIBLE","Y","Y","Y",1,1,1,,,,1,2/5/2014 0:00:00 AM,,52,52,3/3/2014 0:00:00 AM,78,"Xanomeline High Dose","Xan_Hi",2,72,"65-80",2,"CAUCASIAN",1,"M","Y","Y","Y","N","MedDRA version 8.0 (partially masked by request of MSSO)","N","N","N","N","N","N","HLGT_0695","HLT_0778","PRURITUS",6/2/2014 0:00:00 AM,169,12/16/2013 0:00:00 AM
"01-705-1303",2,"CDISCPILOT01","ADAE","705","1303","VERBATIM_1452","RASH","SKIN AND SUBCUTANEOUS TISSUE DISORDERS","MILD","N",0,"POSSIBLE","Y","Y","Y",,,1,,,,1,2/5/2014 0:00:00 AM,,52,52,3/3/2014 0:00:00 AM,78,"Xanomeline High Dose","Xan_Hi",2,72,"65-80",2,"CAUCASIAN",1,"M","Y","Y","Y","N","MedDRA version 8.0 (partially masked by request of MSSO)","N","N","N","N","N","N","HLGT_0198","HLT_0762","RASH",6/2/2014 0:00:00 AM,169,12/16/2013 0:00:00 AM
"01-705-1303",3,"CDISCPILOT01","ADAE","705","1303","VERBATIM_0215","PRURITUS","SKIN AND SUBCUTANEOUS TISSUE DISORDERS","MILD","N",0,"POSSIBLE","Y","Y","Y",,,,,,,1,2/5/2014 0:00:00 AM,,52,52,3/3/2014 0:00:00 AM,78,"Xanomeline High Dose","Xan_Hi",2,72,"65-80",2,"CAUCASIAN",1,"M","Y","Y","Y","N","MedDRA version 8.0 (partially masked by request of MSSO)","N","N","N","N","N","N","HLGT_0695","HLT_0778","PRURITUS",6/2/2014 0:00:00 AM,169,12/16/2013 0:00:00 AM
"01-705-1303",4,"CDISCPILOT01","ADAE","705","1303","VERBATIM_1452","RASH","SKIN AND SUBCUTANEOUS TISSUE DISORDERS","MODERATE","N",0,"POSSIBLE","Y","Y","Y",,,,,,,1,2/5/2014 0:00:00 AM,,52,52,3/3/2014 0:00:00 AM,78,"Xanomeline High Dose","Xan_Hi",2,72,"65-80",2,"CAUCASIAN",1,"M","Y","Y","Y","N","MedDRA version 8.0 (partially masked by request of MSSO)","N","N","N","N","N","N","HLGT_0198","HLT_0762","RASH",6/2/2014 0:00:00 AM,169,12/16/2013 0:00:00 AM
"01-705-1310",1,"CDISCPILOT01","ADAE","705","1310","VERBATIM_0158","RASH PRURITIC","SKIN AND SUBCUTANEOUS TISSUE DISORDERS","MODERATE","N",0,"POSSIBLE","Y","Y","Y",1,1,1,,,,1,11/14/2013 0:00:00 AM,,13,13,,,"Xanomeline High Dose","Xan_Hi",2,74,"65-80",2,"CAUCASIAN",1,"F","Y","Y","Y","N","MedDRA version 8.0 (partially masked by request of MSSO)","N","N","N","N","N","N","HLGT_0753","HLT_0127","PRURITIC RASH",1/23/2014 0:00:00 AM,83,11/2/2013 0:00:00 AM
"01-705-1310",2,"CDISCPILOT01","ADAE","705","1310","VERBATIM_1798","WOUND HAEMORRHAGE","VASCULAR DISORDERS","MODERATE","N",0,"POSSIBLE","Y","Y","Y",,1,1,,,,,1/9/2014 0:00:00 AM,,69,69,,,"Xanomeline High Dose","Xan_Hi",2,74,"65-80",2,"CAUCASIAN",1,"F","Y","Y","Y","N","MedDRA version 8.0 (partially masked by request of MSSO)","N","N","N","N","N","N","HLGT_0162","HLT_0154","WOUND BLEEDING",1/23/2014 0:00:00 AM,83,11/2/2013 0:00:00 AM
"01-705-1349",1,"CDISCPILOT01","ADAE","705","1349","VERBATIM_0775","NAUSEA","GASTROINTESTINAL DISORDERS","MILD","N",0,"REMOTE",,"Y","Y",1,1,1,,,,,4/8/2013 0:00:00 AM,,30,30,4/8/2013 0:00:00 AM,30,"Placebo","Pbo",0,86,">80",3,"HISPANIC (MEXICAN - AMERICAN, MEXICO, CENTRAL AND SOUTH AMERICA)",5,"F","Y","Y","Y","Y","MedDRA version 8.0 (partially masked by request of MSSO)","N","N","N","N","N","N","HLGT_0326","HLT_0742","NAUSEA",9/8/2013 0:00:00 AM,183,3/10/2013 0:00:00 AM
"01-705-1349",2,"CDISCPILOT01","ADAE","705","1349","VERBATIM_0897","VOMITING","GASTROINTESTINAL DISORDERS","MILD","N",0,"REMOTE",,"Y","Y",,,1,,,,,4/11/2013 0:00:00 AM,,33,33,4/11/2013 0:00:00 AM,33,"Placebo","Pbo",0,86,">80",3,"HISPANIC (MEXICAN - AMERICAN, MEXICO, CENTRAL AND SOUTH AMERICA)",5,"F","Y","Y","Y","Y","MedDRA version 8.0 (partially masked by request of MSSO)","N","N","N","N","N","N","HLGT_0350","HLT_0016","VOMITING",9/8/2013 0:00:00 AM,183,3/10/2013 0:00:00 AM
"01-705-1349",3,"CDISCPILOT01","ADAE","705","1349","VERBATIM_1214","VENTRICULAR HYPERTROPHY","CARDIAC DISORDERS","MILD","N",0,"REMOTE",,"Y","Y",,1,1,,,,,8/25/2013 0:00:00 AM,,169,169,,,"Placebo","Pbo",0,86,">80",3,"HISPANIC (MEXICAN - AMERICAN, MEXICO, CENTRAL AND SOUTH AMERICA)",5,"F","Y","Y","Y","Y","MedDRA version 8.0 (partially masked by request of MSSO)","N","N","N","N","N","N","HLGT_0259","HLT_0104","LEFT VENTRICULAR HYPERTROPHY",9/8/2013 0:00:00 AM,183,3/10/2013 0:00:00 AM
